ExperimentName	Subject	Session	AmEnglish.ACC	AmEnglish.CRESP	AmEnglish.DEVICE	AmEnglish.RESP	AmEnglish.RT	AmEnglish.RTTime	BritEnglish.ACC	BritEnglish.CRESP	BritEnglish.DEVICE	BritEnglish.RESP	BritEnglish.RT	BritEnglish.RTTime	CanEnglish.ACC	CanEnglish.CRESP	CanEnglish.DEVICE	CanEnglish.RESP	CanEnglish.RT	CanEnglish.RTTime	Chronos.BoxInfo	Clock.Information	consentBriefing.DEVICE	DataFile.Basename	Display.RefreshRate	EndPracticeCheck.DEVICE	ExperimentVersion	getConsent.DEVICE	Group	Instructions1.DEVICE	Instructions2.DEVICE	Instructions3.DEVICE	Instructions4.DEVICE	Instructions5.DEVICE	Instructions6.DEVICE	IntertrialMask2.DEVICE	IntertrialMask3.DEVICE	IntertrialMask4.DEVICE	OtherLang.ACC	OtherLang.CRESP	OtherLang.DEVICE	OtherLang.RESP	OtherLang.RT	OtherLang.RTTime	RandomSeed	RuntimeCapabilities	RuntimeVersion	RuntimeVersionExpected	SessionDate	SessionStartDateTimeUtc	SessionTime	StudioVersion	transToDemos.DEVICE	Block	CorrectAnswer	Duration	GreyMask.CRESP	GreyMask.DurationError	GreyMask.OnsetDelay	GreyMask.RESP	GreyMask.RT	GreyPrompt.ACC	GreyPrompt.CRESP	GreyPrompt.DEVICE	GreyPrompt.DurationError	GreyPrompt.OnsetDelay	GreyPrompt.OnsetTime	GreyPrompt.OnsetToOnsetTime	GreyPrompt.RESP	GreyPrompt.RT	GreyPrompt.RTTime	IntertrialMask.DEVICE	Practice	Practice.Cycle	Practice.Sample	Procedure	Prompt	Prompt.ACC	Prompt.CRESP	Prompt.DEVICE	Prompt.DurationError	Prompt.OnsetDelay	Prompt.OnsetTime	Prompt.OnsetToOnsetTime	Prompt.RESP	Prompt.RT	Prompt.RTTime	PromptPattern	Running	Stimulus	TrialPattern	Trials	Trials.Cycle	Trials.Sample	Word1	Word10	Word11	Word12	Word13	Word14	Word15	Word16	Word17	Word18	Word19	Word2	Word20	Word21	Word22	Word23	Word24	Word25	Word26	Word27	Word28	Word29	Word3	Word30	Word31	Word32	Word33	Word34	Word35	Word36	Word37	Word38	Word39	Word4	Word40	Word5	Word6	Word7	Word8	Word9	WordSlide1.DurationError	WordSlide1.OnsetDelay	WordSlide1.OnsetTime	WordSlide1.OnsetToOnsetTime	WordSlide10.DurationError	WordSlide10.OnsetDelay	WordSlide10.OnsetTime	WordSlide10.OnsetToOnsetTime	WordSlide11.DurationError	WordSlide11.OnsetDelay	WordSlide11.OnsetTime	WordSlide11.OnsetToOnsetTime	WordSlide12.DurationError	WordSlide12.OnsetDelay	WordSlide12.OnsetTime	WordSlide12.OnsetToOnsetTime	WordSlide13.DurationError	WordSlide13.OnsetDelay	WordSlide13.OnsetTime	WordSlide13.OnsetToOnsetTime	WordSlide14.DurationError	WordSlide14.OnsetDelay	WordSlide14.OnsetTime	WordSlide14.OnsetToOnsetTime	WordSlide15.DurationError	WordSlide15.OnsetDelay	WordSlide15.OnsetTime	WordSlide15.OnsetToOnsetTime	WordSlide2.DurationError	WordSlide2.OnsetDelay	WordSlide2.OnsetTime	WordSlide2.OnsetToOnsetTime	WordSlide3.DurationError	WordSlide3.OnsetDelay	WordSlide3.OnsetTime	WordSlide3.OnsetToOnsetTime	WordSlide4.DurationError	WordSlide4.OnsetDelay	WordSlide4.OnsetTime	WordSlide4.OnsetToOnsetTime	WordSlide5.DurationError	WordSlide5.OnsetDelay	WordSlide5.OnsetTime	WordSlide5.OnsetToOnsetTime	WordSlide6.DurationError	WordSlide6.OnsetDelay	WordSlide6.OnsetTime	WordSlide6.OnsetToOnsetTime	WordSlide7.DurationError	WordSlide7.OnsetDelay	WordSlide7.OnsetTime	WordSlide7.OnsetToOnsetTime	WordSlide8.DurationError	WordSlide8.OnsetDelay	WordSlide8.OnsetTime	WordSlide8.OnsetToOnsetTime	WordSlide9.DurationError	WordSlide9.OnsetDelay	WordSlide9.OnsetTime	WordSlide9.OnsetToOnsetTime
RSVP_Experiment_1_List_A_1	10	1	1	5	Chronos	5	1841	341724	1	1	Chronos	1	2231	343967	1	1	Chronos	1	988	344964	<ChronosDeviceInfo><FriendlyName>MyChronos</FriendlyName><DeviceIndex>1</DeviceIndex><SerialNumber>CHR-04303-2970</SerialNumber><EBNVersion>3.0.3.80</EBNVersion><FirmwareVersion>1.33</FirmwareVersion><APIVersion>1.33</APIVersion><USBHostControllerVersion>3.0</USBHostControllerVersion><USBConnectionRoute>USB#ROOT_HUB30#4&769a227&0&0#{f18a0e88-c30c-11d0-8815-00a0c906bed8} + VID_2266&PID_0007(12)</USBConnectionRoute></ChronosDeviceInfo>	<?xml version="1.0"?>\n<Clock xmlns:dt="urn:schemas-microsoft-com:datatypes"><Description dt:dt="string">E-Prime Primary Realtime Clock</Description><StartTime><Timestamp dt:dt="int">0</Timestamp><DateUtc dt:dt="string">2019-12-04T18:42:01Z</DateUtc></StartTime><FrequencyChanges><FrequencyChange><Frequency dt:dt="r8">10000000</Frequency><Timestamp dt:dt="r8">26034703471183</Timestamp><Current dt:dt="r8">0</Current><DateUtc dt:dt="string">2019-12-04T18:42:01Z</DateUtc></FrequencyChange></FrequencyChanges></Clock>\n	Chronos	RSVP_Experiment_1_List_A_1-10-1	75.001	Chronos	1.0.0.283	Chronos	1	Chronos	Chronos	Chronos	Chronos	Chronos	Chronos	Chronos	Chronos	Chronos	1	1	Chronos	1	2069	347045	-1385639878	Full	3.0.3.80	3.0.3.80	12-04-2019	12/4/2019 6:42:02 PM	13:42:02	3.0.3.82	Chronos	1	1	93		0	0		0	0	1	Chronos	0	7	108786	1000		0	0	Chronos	1	1	1	TrialProc15	wind fell down	1	1	Chronos	1	3	106492	0	1	2287	108779	F	Practice	Practice1	F				a	blew	down	all	of	the	corn	?	?	?	?	storm	?	?	?	?	?	?	?	?	?	?	came	?	?	?	?	?	?	?	?	?	?	in	?	the	night	and	the	wind	0	7	104839	93	0	0	105679	93	1	0	105772	94	0	1	105866	93	0	0	105959	93	1	0	106052	94	0	1	106146	93	1	0	104932	94	0	1	105026	93	0	0	105119	93	1	0	105212	94	0	1	105306	93	0	0	105399	93	1	0	105492	94	0	1	105586	93
RSVP_Experiment_1_List_A_1	10	1	1	5	Chronos	5	1841	341724	1	1	Chronos	1	2231	343967	1	1	Chronos	1	988	344964	<ChronosDeviceInfo><FriendlyName>MyChronos</FriendlyName><DeviceIndex>1</DeviceIndex><SerialNumber>CHR-04303-2970</SerialNumber><EBNVersion>3.0.3.80</EBNVersion><FirmwareVersion>1.33</FirmwareVersion><APIVersion>1.33</APIVersion><USBHostControllerVersion>3.0</USBHostControllerVersion><USBConnectionRoute>USB#ROOT_HUB30#4&769a227&0&0#{f18a0e88-c30c-11d0-8815-00a0c906bed8} + VID_2266&PID_0007(12)</USBConnectionRoute></ChronosDeviceInfo>	<?xml version="1.0"?>\n<Clock xmlns:dt="urn:schemas-microsoft-com:datatypes"><Description dt:dt="string">E-Prime Primary Realtime Clock</Description><StartTime><Timestamp dt:dt="int">0</Timestamp><DateUtc dt:dt="string">2019-12-04T18:42:01Z</DateUtc></StartTime><FrequencyChanges><FrequencyChange><Frequency dt:dt="r8">10000000</Frequency><Timestamp dt:dt="r8">26034703471183</Timestamp><Current dt:dt="r8">0</Current><DateUtc dt:dt="string">2019-12-04T18:42:01Z</DateUtc></FrequencyChange></FrequencyChanges></Clock>\n	Chronos	RSVP_Experiment_1_List_A_1-10-1	75.001	Chronos	1.0.0.283	Chronos	1	Chronos	Chronos	Chronos	Chronos	Chronos	Chronos	Chronos	Chronos	Chronos	1	1	Chronos	1	2069	347045	-1385639878	Full	3.0.3.80	3.0.3.80	12-04-2019	12/4/2019 6:42:02 PM	13:42:02	3.0.3.82	Chronos	2	5	93		0	1		0	0	5	Chronos	0	11	115933	1000		0	0	Chronos	2	1	2	TrialProc09	and journals lay	1	5	Chronos	0	3	114386	0	5	1536	115922	F	Practice	Practice2	F				magazines	?	?	?	?	?	?	?	?	?	?	books	?	?	?	?	?	?	?	?	?	?	and	?	?	?	?	?	?	?	?	?	?	journals	?	lay	all	over	the	desk	1	6	113292	94																									0	1	113386	93	1	0	113479	94	0	1	113573	93	0	0	113666	93	0	0	113759	94	0	1	113853	93	0	0	113946	93	1	0	114039	94
RSVP_Experiment_1_List_A_1	10	1	1	5	Chronos	5	1841	341724	1	1	Chronos	1	2231	343967	1	1	Chronos	1	988	344964	<ChronosDeviceInfo><FriendlyName>MyChronos</FriendlyName><DeviceIndex>1</DeviceIndex><SerialNumber>CHR-04303-2970</SerialNumber><EBNVersion>3.0.3.80</EBNVersion><FirmwareVersion>1.33</FirmwareVersion><APIVersion>1.33</APIVersion><USBHostControllerVersion>3.0</USBHostControllerVersion><USBConnectionRoute>USB#ROOT_HUB30#4&769a227&0&0#{f18a0e88-c30c-11d0-8815-00a0c906bed8} + VID_2266&PID_0007(12)</USBConnectionRoute></ChronosDeviceInfo>	<?xml version="1.0"?>\n<Clock xmlns:dt="urn:schemas-microsoft-com:datatypes"><Description dt:dt="string">E-Prime Primary Realtime Clock</Description><StartTime><Timestamp dt:dt="int">0</Timestamp><DateUtc dt:dt="string">2019-12-04T18:42:01Z</DateUtc></StartTime><FrequencyChanges><FrequencyChange><Frequency dt:dt="r8">10000000</Frequency><Timestamp dt:dt="r8">26034703471183</Timestamp><Current dt:dt="r8">0</Current><DateUtc dt:dt="string">2019-12-04T18:42:01Z</DateUtc></FrequencyChange></FrequencyChanges></Clock>\n	Chronos	RSVP_Experiment_1_List_A_1-10-1	75.001	Chronos	1.0.0.283	Chronos	1	Chronos	Chronos	Chronos	Chronos	Chronos	Chronos	Chronos	Chronos	Chronos	1	1	Chronos	1	2069	347045	-1385639878	Full	3.0.3.80	3.0.3.80	12-04-2019	12/4/2019 6:42:02 PM	13:42:02	3.0.3.82	Chronos	3	1	93		0	1		0	0	1	Chronos	0	14	123946	1000		0	0	Chronos	3	1	3	TrialProc12	made of metal	1	1	Chronos	0	3	120986	0	1	2946	123932	F	Practice	Practice3	F				the	metal	and	cotton	?	?	?	?	?	?	?	chair	?	?	?	?	?	?	?	?	?	?	in	?	?	?	?	?	?	?	?	?	?	the	?	office	was	made	of	wood	0	7	119613	93	0	1	120453	93	0	0	120546	93	1	0	120639	94													0	0	119706	93	1	0	119799	94	0	1	119893	93	0	0	119986	93	1	0	120079	94	0	1	120173	93	0	0	120266	93	1	0	120359	94
RSVP_Experiment_1_List_A_1	10	1	1	5	Chronos	5	1841	341724	1	1	Chronos	1	2231	343967	1	1	Chronos	1	988	344964	<ChronosDeviceInfo><FriendlyName>MyChronos</FriendlyName><DeviceIndex>1</DeviceIndex><SerialNumber>CHR-04303-2970</SerialNumber><EBNVersion>3.0.3.80</EBNVersion><FirmwareVersion>1.33</FirmwareVersion><APIVersion>1.33</APIVersion><USBHostControllerVersion>3.0</USBHostControllerVersion><USBConnectionRoute>USB#ROOT_HUB30#4&769a227&0&0#{f18a0e88-c30c-11d0-8815-00a0c906bed8} + VID_2266&PID_0007(12)</USBConnectionRoute></ChronosDeviceInfo>	<?xml version="1.0"?>\n<Clock xmlns:dt="urn:schemas-microsoft-com:datatypes"><Description dt:dt="string">E-Prime Primary Realtime Clock</Description><StartTime><Timestamp dt:dt="int">0</Timestamp><DateUtc dt:dt="string">2019-12-04T18:42:01Z</DateUtc></StartTime><FrequencyChanges><FrequencyChange><Frequency dt:dt="r8">10000000</Frequency><Timestamp dt:dt="r8">26034703471183</Timestamp><Current dt:dt="r8">0</Current><DateUtc dt:dt="string">2019-12-04T18:42:01Z</DateUtc></FrequencyChange></FrequencyChanges></Clock>\n	Chronos	RSVP_Experiment_1_List_A_1-10-1	75.001	Chronos	1.0.0.283	Chronos	1	Chronos	Chronos	Chronos	Chronos	Chronos	Chronos	Chronos	Chronos	Chronos	1	1	Chronos	1	2069	347045	-1385639878	Full	3.0.3.80	3.0.3.80	12-04-2019	12/4/2019 6:42:02 PM	13:42:02	3.0.3.82	Chronos	4	1	93		0	1		0	0	1	Chronos	1	15	135346	1000		0	0	Chronos				TrialProc11	pan to make	1	1	Chronos	0	3	133706	0	1	1625	135331	F	Trials	Filler1	F	1	1	1	peter	the	potatoes	?	?	?	?	?	?	?	?	borrows	?	?	?	?	?	?	?	?	?	?	a	?	?	?	?	?	?	?	?	?	?	pot	?	pan	and	mixer	to	make	1	7	132426	93	1	0	133266	93	1	0	133359	94																	1	0	132519	94	0	1	132613	93	0	0	132706	93	1	0	132799	94	0	1	132893	93	1	0	132986	93	1	0	133079	94	0	1	133173	93
RSVP_Experiment_1_List_A_1	10	1	1	5	Chronos	5	1841	341724	1	1	Chronos	1	2231	343967	1	1	Chronos	1	988	344964	<ChronosDeviceInfo><FriendlyName>MyChronos</FriendlyName><DeviceIndex>1</DeviceIndex><SerialNumber>CHR-04303-2970</SerialNumber><EBNVersion>3.0.3.80</EBNVersion><FirmwareVersion>1.33</FirmwareVersion><APIVersion>1.33</APIVersion><USBHostControllerVersion>3.0</USBHostControllerVersion><USBConnectionRoute>USB#ROOT_HUB30#4&769a227&0&0#{f18a0e88-c30c-11d0-8815-00a0c906bed8} + VID_2266&PID_0007(12)</USBConnectionRoute></ChronosDeviceInfo>	<?xml version="1.0"?>\n<Clock xmlns:dt="urn:schemas-microsoft-com:datatypes"><Description dt:dt="string">E-Prime Primary Realtime Clock</Description><StartTime><Timestamp dt:dt="int">0</Timestamp><DateUtc dt:dt="string">2019-12-04T18:42:01Z</DateUtc></StartTime><FrequencyChanges><FrequencyChange><Frequency dt:dt="r8">10000000</Frequency><Timestamp dt:dt="r8">26034703471183</Timestamp><Current dt:dt="r8">0</Current><DateUtc dt:dt="string">2019-12-04T18:42:01Z</DateUtc></FrequencyChange></FrequencyChanges></Clock>\n	Chronos	RSVP_Experiment_1_List_A_1-10-1	75.001	Chronos	1.0.0.283	Chronos	1	Chronos	Chronos	Chronos	Chronos	Chronos	Chronos	Chronos	Chronos	Chronos	1	1	Chronos	1	2069	347045	-1385639878	Full	3.0.3.80	3.0.3.80	12-04-2019	12/4/2019 6:42:02 PM	13:42:02	3.0.3.82	Chronos	5	5	93		1	0		0	0	5	Chronos	0	13	143600	1000		0	0	Chronos				TrialProc10	but his brother orange	0	5	Chronos	0	4	140600	0	1	2987	143587	G	Trials	Filler2	F	2	1	2	alex	green	?	?	?	?	?	?	?	?	?	likes	?	?	?	?	?	?	?	?	?	?	blue	?	?	?	?	?	?	?	?	?	?	but	?	his	brother	likes	orange	and	0	7	139413	93	0	0	140253	93																					1	0	139506	94	0	1	139600	93	0	0	139693	93	1	0	139786	94	0	1	139880	93	0	0	139973	93	1	0	140066	94	0	1	140160	93
RSVP_Experiment_1_List_A_1	10	1	1	5	Chronos	5	1841	341724	1	1	Chronos	1	2231	343967	1	1	Chronos	1	988	344964	<ChronosDeviceInfo><FriendlyName>MyChronos</FriendlyName><DeviceIndex>1</DeviceIndex><SerialNumber>CHR-04303-2970</SerialNumber><EBNVersion>3.0.3.80</EBNVersion><FirmwareVersion>1.33</FirmwareVersion><APIVersion>1.33</APIVersion><USBHostControllerVersion>3.0</USBHostControllerVersion><USBConnectionRoute>USB#ROOT_HUB30#4&769a227&0&0#{f18a0e88-c30c-11d0-8815-00a0c906bed8} + VID_2266&PID_0007(12)</USBConnectionRoute></ChronosDeviceInfo>	<?xml version="1.0"?>\n<Clock xmlns:dt="urn:schemas-microsoft-com:datatypes"><Description dt:dt="string">E-Prime Primary Realtime Clock</Description><StartTime><Timestamp dt:dt="int">0</Timestamp><DateUtc dt:dt="string">2019-12-04T18:42:01Z</DateUtc></StartTime><FrequencyChanges><FrequencyChange><Frequency dt:dt="r8">10000000</Frequency><Timestamp dt:dt="r8">26034703471183</Timestamp><Current dt:dt="r8">0</Current><DateUtc dt:dt="string">2019-12-04T18:42:01Z</DateUtc></FrequencyChange></FrequencyChanges></Clock>\n	Chronos	RSVP_Experiment_1_List_A_1-10-1	75.001	Chronos	1.0.0.283	Chronos	1	Chronos	Chronos	Chronos	Chronos	Chronos	Chronos	Chronos	Chronos	Chronos	1	1	Chronos	1	2069	347045	-1385639878	Full	3.0.3.80	3.0.3.80	12-04-2019	12/4/2019 6:42:02 PM	13:42:02	3.0.3.82	Chronos	6	5	93		0	0		0	0	5	Chronos	1	8	152026	1000		0	0	Chronos				TrialProc12	play the horn	1	5	Chronos	1	3	150746	0	5	1271	152017	F	Trials	Filler3	F	3	1	3	my	and	bass	respectively	?	?	?	?	?	?	?	aunt	?	?	?	?	?	?	?	?	?	?	uncle	?	?	?	?	?	?	?	?	?	?	and	?	cousin	play	the	horn	piano	0	7	149373	93	0	0	150213	93	1	0	150306	94	0	1	150400	93													1	0	149466	94	0	1	149560	93	0	0	149653	93	1	0	149746	94	0	1	149840	93	0	0	149933	93	1	0	150026	94	0	1	150120	93
RSVP_Experiment_1_List_A_1	10	1	1	5	Chronos	5	1841	341724	1	1	Chronos	1	2231	343967	1	1	Chronos	1	988	344964	<ChronosDeviceInfo><FriendlyName>MyChronos</FriendlyName><DeviceIndex>1</DeviceIndex><SerialNumber>CHR-04303-2970</SerialNumber><EBNVersion>3.0.3.80</EBNVersion><FirmwareVersion>1.33</FirmwareVersion><APIVersion>1.33</APIVersion><USBHostControllerVersion>3.0</USBHostControllerVersion><USBConnectionRoute>USB#ROOT_HUB30#4&769a227&0&0#{f18a0e88-c30c-11d0-8815-00a0c906bed8} + VID_2266&PID_0007(12)</USBConnectionRoute></ChronosDeviceInfo>	<?xml version="1.0"?>\n<Clock xmlns:dt="urn:schemas-microsoft-com:datatypes"><Description dt:dt="string">E-Prime Primary Realtime Clock</Description><StartTime><Timestamp dt:dt="int">0</Timestamp><DateUtc dt:dt="string">2019-12-04T18:42:01Z</DateUtc></StartTime><FrequencyChanges><FrequencyChange><Frequency dt:dt="r8">10000000</Frequency><Timestamp dt:dt="r8">26034703471183</Timestamp><Current dt:dt="r8">0</Current><DateUtc dt:dt="string">2019-12-04T18:42:01Z</DateUtc></FrequencyChange></FrequencyChanges></Clock>\n	Chronos	RSVP_Experiment_1_List_A_1-10-1	75.001	Chronos	1.0.0.283	Chronos	1	Chronos	Chronos	Chronos	Chronos	Chronos	Chronos	Chronos	Chronos	Chronos	1	1	Chronos	1	2069	347045	-1385639878	Full	3.0.3.80	3.0.3.80	12-04-2019	12/4/2019 6:42:02 PM	13:42:02	3.0.3.82	Chronos	7	1	93		1	0		0	0	1	Chronos	0	10	159187	1000		0	0	Chronos				TrialProc09	bill likes jazz	1	1	Chronos	0	4	157427	0	1	1750	159177	SG	Trials	4-5	SG	4	1	4	john	?	?	?	?	?	?	?	?	?	?	likes	?	?	?	?	?	?	?	?	?	?	rock	?	?	?	?	?	?	?	?	?	?	and	?	bill	too	and	mike	jazz	1	7	156333	93																									1	0	156426	94	0	1	156520	93	1	0	156613	94	0	1	156707	93	0	0	156800	93	1	0	156893	93	1	0	156986	94	0	1	157080	93
RSVP_Experiment_1_List_A_1	10	1	1	5	Chronos	5	1841	341724	1	1	Chronos	1	2231	343967	1	1	Chronos	1	988	344964	<ChronosDeviceInfo><FriendlyName>MyChronos</FriendlyName><DeviceIndex>1</DeviceIndex><SerialNumber>CHR-04303-2970</SerialNumber><EBNVersion>3.0.3.80</EBNVersion><FirmwareVersion>1.33</FirmwareVersion><APIVersion>1.33</APIVersion><USBHostControllerVersion>3.0</USBHostControllerVersion><USBConnectionRoute>USB#ROOT_HUB30#4&769a227&0&0#{f18a0e88-c30c-11d0-8815-00a0c906bed8} + VID_2266&PID_0007(12)</USBConnectionRoute></ChronosDeviceInfo>	<?xml version="1.0"?>\n<Clock xmlns:dt="urn:schemas-microsoft-com:datatypes"><Description dt:dt="string">E-Prime Primary Realtime Clock</Description><StartTime><Timestamp dt:dt="int">0</Timestamp><DateUtc dt:dt="string">2019-12-04T18:42:01Z</DateUtc></StartTime><FrequencyChanges><FrequencyChange><Frequency dt:dt="r8">10000000</Frequency><Timestamp dt:dt="r8">26034703471183</Timestamp><Current dt:dt="r8">0</Current><DateUtc dt:dt="string">2019-12-04T18:42:01Z</DateUtc></FrequencyChange></FrequencyChanges></Clock>\n	Chronos	RSVP_Experiment_1_List_A_1-10-1	75.001	Chronos	1.0.0.283	Chronos	1	Chronos	Chronos	Chronos	Chronos	Chronos	Chronos	Chronos	Chronos	Chronos	1	1	Chronos	1	2069	347045	-1385639878	Full	3.0.3.80	3.0.3.80	12-04-2019	12/4/2019 6:42:02 PM	13:42:02	3.0.3.82	Chronos	8	1	93		0	0		0	0	1	Chronos	1	8	164293	1000		0	0	Chronos				TrialProc07	and russia tennis	0	1	Chronos	1	3	163213	0	5	1072	164285	NE	Trials	6-4	NE	5	1	5	canada	?	?	?	?	?	?	?	?	?	?	enjoys	?	?	?	?	?	?	?	?	?	?	soccer	?	?	?	?	?	?	?	?	?	?	and	?	russia	enjoys	tennis	?	?	0	7	162307	93																									0	0	162400	93	1	0	162493	94	0	1	162587	93	0	0	162680	93	1	0	162773	94	0	1	162867	93								
RSVP_Experiment_1_List_A_1	10	1	1	5	Chronos	5	1841	341724	1	1	Chronos	1	2231	343967	1	1	Chronos	1	988	344964	<ChronosDeviceInfo><FriendlyName>MyChronos</FriendlyName><DeviceIndex>1</DeviceIndex><SerialNumber>CHR-04303-2970</SerialNumber><EBNVersion>3.0.3.80</EBNVersion><FirmwareVersion>1.33</FirmwareVersion><APIVersion>1.33</APIVersion><USBHostControllerVersion>3.0</USBHostControllerVersion><USBConnectionRoute>USB#ROOT_HUB30#4&769a227&0&0#{f18a0e88-c30c-11d0-8815-00a0c906bed8} + VID_2266&PID_0007(12)</USBConnectionRoute></ChronosDeviceInfo>	<?xml version="1.0"?>\n<Clock xmlns:dt="urn:schemas-microsoft-com:datatypes"><Description dt:dt="string">E-Prime Primary Realtime Clock</Description><StartTime><Timestamp dt:dt="int">0</Timestamp><DateUtc dt:dt="string">2019-12-04T18:42:01Z</DateUtc></StartTime><FrequencyChanges><FrequencyChange><Frequency dt:dt="r8">10000000</Frequency><Timestamp dt:dt="r8">26034703471183</Timestamp><Current dt:dt="r8">0</Current><DateUtc dt:dt="string">2019-12-04T18:42:01Z</DateUtc></FrequencyChange></FrequencyChanges></Clock>\n	Chronos	RSVP_Experiment_1_List_A_1-10-1	75.001	Chronos	1.0.0.283	Chronos	1	Chronos	Chronos	Chronos	Chronos	Chronos	Chronos	Chronos	Chronos	Chronos	1	1	Chronos	1	2069	347045	-1385639878	Full	3.0.3.80	3.0.3.80	12-04-2019	12/4/2019 6:42:02 PM	13:42:02	3.0.3.82	Chronos	9	5	93		0	1		0	0	5	Chronos	0	16	170600	1000		0	0	Chronos				TrialProc09	cancer in the mouth	1	5	Chronos	0	3	169520	0	5	1064	170584	F	Trials	Filler4	F	6	1	6	alcohol	?	?	?	?	?	?	?	?	?	?	can	?	?	?	?	?	?	?	?	?	?	cause	?	?	?	?	?	?	?	?	?	?	cancer	?	in	the	mouth	and	stomach	0	7	168427	93																									0	0	168520	93	1	0	168613	94	0	1	168707	93	0	0	168800	93	1	0	168893	94	0	1	168987	93	0	0	169080	93	1	0	169173	94
RSVP_Experiment_1_List_A_1	10	1	1	5	Chronos	5	1841	341724	1	1	Chronos	1	2231	343967	1	1	Chronos	1	988	344964	<ChronosDeviceInfo><FriendlyName>MyChronos</FriendlyName><DeviceIndex>1</DeviceIndex><SerialNumber>CHR-04303-2970</SerialNumber><EBNVersion>3.0.3.80</EBNVersion><FirmwareVersion>1.33</FirmwareVersion><APIVersion>1.33</APIVersion><USBHostControllerVersion>3.0</USBHostControllerVersion><USBConnectionRoute>USB#ROOT_HUB30#4&769a227&0&0#{f18a0e88-c30c-11d0-8815-00a0c906bed8} + VID_2266&PID_0007(12)</USBConnectionRoute></ChronosDeviceInfo>	<?xml version="1.0"?>\n<Clock xmlns:dt="urn:schemas-microsoft-com:datatypes"><Description dt:dt="string">E-Prime Primary Realtime Clock</Description><StartTime><Timestamp dt:dt="int">0</Timestamp><DateUtc dt:dt="string">2019-12-04T18:42:01Z</DateUtc></StartTime><FrequencyChanges><FrequencyChange><Frequency dt:dt="r8">10000000</Frequency><Timestamp dt:dt="r8">26034703471183</Timestamp><Current dt:dt="r8">0</Current><DateUtc dt:dt="string">2019-12-04T18:42:01Z</DateUtc></FrequencyChange></FrequencyChanges></Clock>\n	Chronos	RSVP_Experiment_1_List_A_1-10-1	75.001	Chronos	1.0.0.283	Chronos	1	Chronos	Chronos	Chronos	Chronos	Chronos	Chronos	Chronos	Chronos	Chronos	1	1	Chronos	1	2069	347045	-1385639878	Full	3.0.3.80	3.0.3.80	12-04-2019	12/4/2019 6:42:02 PM	13:42:02	3.0.3.82	Chronos	10	1	93		0	0		0	0	1	Chronos	0	5	177587	1000		0	0	Chronos				TrialProc09	and david plays	0	1	Chronos	1	3	176280	0	5	1302	177582	S	Trials	Filler5	F	7	1	7	david	?	?	?	?	?	?	?	?	?	?	plays	?	?	?	?	?	?	?	?	?	?	country	?	?	?	?	?	?	?	?	?	?	and	?	metal	music	in	his	band	0	7	175187	93																									1	0	175280	93	1	0	175373	94	0	1	175467	93	0	0	175560	93	1	0	175653	94	0	1	175747	93	1	0	175840	94	0	1	175934	93
RSVP_Experiment_1_List_A_1	10	1	1	5	Chronos	5	1841	341724	1	1	Chronos	1	2231	343967	1	1	Chronos	1	988	344964	<ChronosDeviceInfo><FriendlyName>MyChronos</FriendlyName><DeviceIndex>1</DeviceIndex><SerialNumber>CHR-04303-2970</SerialNumber><EBNVersion>3.0.3.80</EBNVersion><FirmwareVersion>1.33</FirmwareVersion><APIVersion>1.33</APIVersion><USBHostControllerVersion>3.0</USBHostControllerVersion><USBConnectionRoute>USB#ROOT_HUB30#4&769a227&0&0#{f18a0e88-c30c-11d0-8815-00a0c906bed8} + VID_2266&PID_0007(12)</USBConnectionRoute></ChronosDeviceInfo>	<?xml version="1.0"?>\n<Clock xmlns:dt="urn:schemas-microsoft-com:datatypes"><Description dt:dt="string">E-Prime Primary Realtime Clock</Description><StartTime><Timestamp dt:dt="int">0</Timestamp><DateUtc dt:dt="string">2019-12-04T18:42:01Z</DateUtc></StartTime><FrequencyChanges><FrequencyChange><Frequency dt:dt="r8">10000000</Frequency><Timestamp dt:dt="r8">26034703471183</Timestamp><Current dt:dt="r8">0</Current><DateUtc dt:dt="string">2019-12-04T18:42:01Z</DateUtc></FrequencyChange></FrequencyChanges></Clock>\n	Chronos	RSVP_Experiment_1_List_A_1-10-1	75.001	Chronos	1.0.0.283	Chronos	1	Chronos	Chronos	Chronos	Chronos	Chronos	Chronos	Chronos	Chronos	Chronos	1	1	Chronos	1	2069	347045	-1385639878	Full	3.0.3.80	3.0.3.80	12-04-2019	12/4/2019 6:42:02 PM	13:42:02	3.0.3.82	Chronos	11	1	93		0	0		0	0	1	Chronos	1	10	185520	1000		0	0	Chronos				TrialProc06	and brian sells	1	1	Chronos	1	3	183040	0	1	2470	185510	S	Trials	5-1	S	8	1	8	chris	?	?	?	?	?	?	?	?	?	?	sells	?	?	?	?	?	?	?	?	?	?	knives	?	?	?	?	?	?	?	?	?	?	and	?	brian	too	?	?	?	0	7	182227	93																									1	0	182320	94	0	1	182414	93	0	0	182507	93	1	0	182600	94	0	1	182694	93												
RSVP_Experiment_1_List_A_1	10	1	1	5	Chronos	5	1841	341724	1	1	Chronos	1	2231	343967	1	1	Chronos	1	988	344964	<ChronosDeviceInfo><FriendlyName>MyChronos</FriendlyName><DeviceIndex>1</DeviceIndex><SerialNumber>CHR-04303-2970</SerialNumber><EBNVersion>3.0.3.80</EBNVersion><FirmwareVersion>1.33</FirmwareVersion><APIVersion>1.33</APIVersion><USBHostControllerVersion>3.0</USBHostControllerVersion><USBConnectionRoute>USB#ROOT_HUB30#4&769a227&0&0#{f18a0e88-c30c-11d0-8815-00a0c906bed8} + VID_2266&PID_0007(12)</USBConnectionRoute></ChronosDeviceInfo>	<?xml version="1.0"?>\n<Clock xmlns:dt="urn:schemas-microsoft-com:datatypes"><Description dt:dt="string">E-Prime Primary Realtime Clock</Description><StartTime><Timestamp dt:dt="int">0</Timestamp><DateUtc dt:dt="string">2019-12-04T18:42:01Z</DateUtc></StartTime><FrequencyChanges><FrequencyChange><Frequency dt:dt="r8">10000000</Frequency><Timestamp dt:dt="r8">26034703471183</Timestamp><Current dt:dt="r8">0</Current><DateUtc dt:dt="string">2019-12-04T18:42:01Z</DateUtc></FrequencyChange></FrequencyChanges></Clock>\n	Chronos	RSVP_Experiment_1_List_A_1-10-1	75.001	Chronos	1.0.0.283	Chronos	1	Chronos	Chronos	Chronos	Chronos	Chronos	Chronos	Chronos	Chronos	Chronos	1	1	Chronos	1	2069	347045	-1385639878	Full	3.0.3.80	3.0.3.80	12-04-2019	12/4/2019 6:42:02 PM	13:42:02	3.0.3.82	Chronos	12	5	93		1	0		0	0	5	Chronos	0	8	196334	1000		0	0	Chronos				TrialProc10	and my mother a donkey	0	5	Chronos	0	4	192934	0	1	3391	196325	G	Trials	6-2	G	9	1	9	my	donkey	?	?	?	?	?	?	?	?	?	cousin	?	?	?	?	?	?	?	?	?	?	bought	?	?	?	?	?	?	?	?	?	?	a	?	rabbit	and	my	mother	a	0	7	191747	93	0	0	192587	93																					1	0	191840	94	0	1	191934	93	0	0	192027	93	1	0	192120	94	0	1	192214	93	0	0	192307	93	1	0	192400	94	0	1	192494	93
RSVP_Experiment_1_List_A_1	10	1	1	5	Chronos	5	1841	341724	1	1	Chronos	1	2231	343967	1	1	Chronos	1	988	344964	<ChronosDeviceInfo><FriendlyName>MyChronos</FriendlyName><DeviceIndex>1</DeviceIndex><SerialNumber>CHR-04303-2970</SerialNumber><EBNVersion>3.0.3.80</EBNVersion><FirmwareVersion>1.33</FirmwareVersion><APIVersion>1.33</APIVersion><USBHostControllerVersion>3.0</USBHostControllerVersion><USBConnectionRoute>USB#ROOT_HUB30#4&769a227&0&0#{f18a0e88-c30c-11d0-8815-00a0c906bed8} + VID_2266&PID_0007(12)</USBConnectionRoute></ChronosDeviceInfo>	<?xml version="1.0"?>\n<Clock xmlns:dt="urn:schemas-microsoft-com:datatypes"><Description dt:dt="string">E-Prime Primary Realtime Clock</Description><StartTime><Timestamp dt:dt="int">0</Timestamp><DateUtc dt:dt="string">2019-12-04T18:42:01Z</DateUtc></StartTime><FrequencyChanges><FrequencyChange><Frequency dt:dt="r8">10000000</Frequency><Timestamp dt:dt="r8">26034703471183</Timestamp><Current dt:dt="r8">0</Current><DateUtc dt:dt="string">2019-12-04T18:42:01Z</DateUtc></FrequencyChange></FrequencyChanges></Clock>\n	Chronos	RSVP_Experiment_1_List_A_1-10-1	75.001	Chronos	1.0.0.283	Chronos	1	Chronos	Chronos	Chronos	Chronos	Chronos	Chronos	Chronos	Chronos	Chronos	1	1	Chronos	1	2069	347045	-1385639878	Full	3.0.3.80	3.0.3.80	12-04-2019	12/4/2019 6:42:02 PM	13:42:02	3.0.3.82	Chronos	13	1	93		1	0		0	0	1	Chronos	1	15	202267	1000		0	0	Chronos				TrialProc13	study how bombs	0	1	Chronos	0	4	201121	0	5	1130	202251	F	Trials	Filler7	F	10	1	10	bob	are	used	in	wars	?	?	?	?	?	?	and	?	?	?	?	?	?	?	?	?	?	george	?	?	?	?	?	?	?	?	?	?	study	?	how	guns	bombs	and	missiles	0	7	199654	93	0	0	200494	93	1	0	200587	94	0	1	200681	93	0	0	200774	93									1	0	199747	94	0	1	199841	93	0	0	199934	93	1	0	200027	94	0	1	200121	93	0	0	200214	93	1	0	200307	94	0	1	200401	93
RSVP_Experiment_1_List_A_1	10	1	1	5	Chronos	5	1841	341724	1	1	Chronos	1	2231	343967	1	1	Chronos	1	988	344964	<ChronosDeviceInfo><FriendlyName>MyChronos</FriendlyName><DeviceIndex>1</DeviceIndex><SerialNumber>CHR-04303-2970</SerialNumber><EBNVersion>3.0.3.80</EBNVersion><FirmwareVersion>1.33</FirmwareVersion><APIVersion>1.33</APIVersion><USBHostControllerVersion>3.0</USBHostControllerVersion><USBConnectionRoute>USB#ROOT_HUB30#4&769a227&0&0#{f18a0e88-c30c-11d0-8815-00a0c906bed8} + VID_2266&PID_0007(12)</USBConnectionRoute></ChronosDeviceInfo>	<?xml version="1.0"?>\n<Clock xmlns:dt="urn:schemas-microsoft-com:datatypes"><Description dt:dt="string">E-Prime Primary Realtime Clock</Description><StartTime><Timestamp dt:dt="int">0</Timestamp><DateUtc dt:dt="string">2019-12-04T18:42:01Z</DateUtc></StartTime><FrequencyChanges><FrequencyChange><Frequency dt:dt="r8">10000000</Frequency><Timestamp dt:dt="r8">26034703471183</Timestamp><Current dt:dt="r8">0</Current><DateUtc dt:dt="string">2019-12-04T18:42:01Z</DateUtc></FrequencyChange></FrequencyChanges></Clock>\n	Chronos	RSVP_Experiment_1_List_A_1-10-1	75.001	Chronos	1.0.0.283	Chronos	1	Chronos	Chronos	Chronos	Chronos	Chronos	Chronos	Chronos	Chronos	Chronos	1	1	Chronos	1	2069	347045	-1385639878	Full	3.0.3.80	3.0.3.80	12-04-2019	12/4/2019 6:42:02 PM	13:42:02	3.0.3.82	Chronos	14	5	93		0	0		0	0	5	Chronos	0	12	208414	1000		0	0	Chronos				TrialProc12	golf are popular in china	1	5	Chronos	1	3	207027	0	5	1374	208401	SG	Trials	Filler6	F	11	1	11	baseball	but	not	india	?	?	?	?	?	?	?	and	?	?	?	?	?	?	?	?	?	?	golf	?	?	?	?	?	?	?	?	?	?	are	?	popular	in	china	and	japan	0	7	205654	93	0	0	206494	93	1	0	206587	94	0	1	206681	93													1	0	205747	94	0	1	205841	93	0	0	205934	93	1	0	206027	94	0	1	206121	93	0	0	206214	93	1	0	206307	94	0	1	206401	93
RSVP_Experiment_1_List_A_1	10	1	1	5	Chronos	5	1841	341724	1	1	Chronos	1	2231	343967	1	1	Chronos	1	988	344964	<ChronosDeviceInfo><FriendlyName>MyChronos</FriendlyName><DeviceIndex>1</DeviceIndex><SerialNumber>CHR-04303-2970</SerialNumber><EBNVersion>3.0.3.80</EBNVersion><FirmwareVersion>1.33</FirmwareVersion><APIVersion>1.33</APIVersion><USBHostControllerVersion>3.0</USBHostControllerVersion><USBConnectionRoute>USB#ROOT_HUB30#4&769a227&0&0#{f18a0e88-c30c-11d0-8815-00a0c906bed8} + VID_2266&PID_0007(12)</USBConnectionRoute></ChronosDeviceInfo>	<?xml version="1.0"?>\n<Clock xmlns:dt="urn:schemas-microsoft-com:datatypes"><Description dt:dt="string">E-Prime Primary Realtime Clock</Description><StartTime><Timestamp dt:dt="int">0</Timestamp><DateUtc dt:dt="string">2019-12-04T18:42:01Z</DateUtc></StartTime><FrequencyChanges><FrequencyChange><Frequency dt:dt="r8">10000000</Frequency><Timestamp dt:dt="r8">26034703471183</Timestamp><Current dt:dt="r8">0</Current><DateUtc dt:dt="string">2019-12-04T18:42:01Z</DateUtc></FrequencyChange></FrequencyChanges></Clock>\n	Chronos	RSVP_Experiment_1_List_A_1-10-1	75.001	Chronos	1.0.0.283	Chronos	1	Chronos	Chronos	Chronos	Chronos	Chronos	Chronos	Chronos	Chronos	Chronos	1	1	Chronos	1	2069	347045	-1385639878	Full	3.0.3.80	3.0.3.80	12-04-2019	12/4/2019 6:42:02 PM	13:42:02	3.0.3.82	Chronos	15	1	93		0	1		0	0	1	Chronos	0	15	215041	1000		0	0	Chronos				TrialProc09	peru buys silk	0	1	Chronos	0	3	213294	0	5	1732	215026	GS	Trials	4-2	GS	12	1	12	iraq	?	?	?	?	?	?	?	?	?	?	buys	?	?	?	?	?	?	?	?	?	?	silk	?	?	?	?	?	?	?	?	?	?	and	?	iran	wool	and	peru	too	0	7	212201	93																									0	0	212294	93	1	0	212387	94	0	1	212481	93	0	0	212574	93	1	0	212667	94	0	1	212761	93	0	0	212854	93	1	0	212947	94
RSVP_Experiment_1_List_A_1	10	1	1	5	Chronos	5	1841	341724	1	1	Chronos	1	2231	343967	1	1	Chronos	1	988	344964	<ChronosDeviceInfo><FriendlyName>MyChronos</FriendlyName><DeviceIndex>1</DeviceIndex><SerialNumber>CHR-04303-2970</SerialNumber><EBNVersion>3.0.3.80</EBNVersion><FirmwareVersion>1.33</FirmwareVersion><APIVersion>1.33</APIVersion><USBHostControllerVersion>3.0</USBHostControllerVersion><USBConnectionRoute>USB#ROOT_HUB30#4&769a227&0&0#{f18a0e88-c30c-11d0-8815-00a0c906bed8} + VID_2266&PID_0007(12)</USBConnectionRoute></ChronosDeviceInfo>	<?xml version="1.0"?>\n<Clock xmlns:dt="urn:schemas-microsoft-com:datatypes"><Description dt:dt="string">E-Prime Primary Realtime Clock</Description><StartTime><Timestamp dt:dt="int">0</Timestamp><DateUtc dt:dt="string">2019-12-04T18:42:01Z</DateUtc></StartTime><FrequencyChanges><FrequencyChange><Frequency dt:dt="r8">10000000</Frequency><Timestamp dt:dt="r8">26034703471183</Timestamp><Current dt:dt="r8">0</Current><DateUtc dt:dt="string">2019-12-04T18:42:01Z</DateUtc></FrequencyChange></FrequencyChanges></Clock>\n	Chronos	RSVP_Experiment_1_List_A_1-10-1	75.001	Chronos	1.0.0.283	Chronos	1	Chronos	Chronos	Chronos	Chronos	Chronos	Chronos	Chronos	Chronos	Chronos	1	1	Chronos	1	2069	347045	-1385639878	Full	3.0.3.80	3.0.3.80	12-04-2019	12/4/2019 6:42:02 PM	13:42:02	3.0.3.82	Chronos	16	5	93		0	0		0	0	5	Chronos	0	15	220601	1000		0	0	Chronos				TrialProc11	keeps several horses	1	5	Chronos	1	3	219467	0	5	1119	220586	F	Trials	Filler8	F	13	1	13	my	the	country	?	?	?	?	?	?	?	?	uncle	?	?	?	?	?	?	?	?	?	?	keeps	?	?	?	?	?	?	?	?	?	?	several	?	horses	at	his	farm	in	0	7	218188	93	1	0	219027	94	0	1	219121	93																	0	0	218281	93	1	0	218374	94	0	1	218468	93	0	0	218561	93	1	0	218654	94	0	1	218748	93	0	0	218841	93	1	0	218934	93
RSVP_Experiment_1_List_A_1	10	1	1	5	Chronos	5	1841	341724	1	1	Chronos	1	2231	343967	1	1	Chronos	1	988	344964	<ChronosDeviceInfo><FriendlyName>MyChronos</FriendlyName><DeviceIndex>1</DeviceIndex><SerialNumber>CHR-04303-2970</SerialNumber><EBNVersion>3.0.3.80</EBNVersion><FirmwareVersion>1.33</FirmwareVersion><APIVersion>1.33</APIVersion><USBHostControllerVersion>3.0</USBHostControllerVersion><USBConnectionRoute>USB#ROOT_HUB30#4&769a227&0&0#{f18a0e88-c30c-11d0-8815-00a0c906bed8} + VID_2266&PID_0007(12)</USBConnectionRoute></ChronosDeviceInfo>	<?xml version="1.0"?>\n<Clock xmlns:dt="urn:schemas-microsoft-com:datatypes"><Description dt:dt="string">E-Prime Primary Realtime Clock</Description><StartTime><Timestamp dt:dt="int">0</Timestamp><DateUtc dt:dt="string">2019-12-04T18:42:01Z</DateUtc></StartTime><FrequencyChanges><FrequencyChange><Frequency dt:dt="r8">10000000</Frequency><Timestamp dt:dt="r8">26034703471183</Timestamp><Current dt:dt="r8">0</Current><DateUtc dt:dt="string">2019-12-04T18:42:01Z</DateUtc></FrequencyChange></FrequencyChanges></Clock>\n	Chronos	RSVP_Experiment_1_List_A_1-10-1	75.001	Chronos	1.0.0.283	Chronos	1	Chronos	Chronos	Chronos	Chronos	Chronos	Chronos	Chronos	Chronos	Chronos	1	1	Chronos	1	2069	347045	-1385639878	Full	3.0.3.80	3.0.3.80	12-04-2019	12/4/2019 6:42:02 PM	13:42:02	3.0.3.82	Chronos	17	5	93		0	0		0	0	5	Chronos	0	15	226681	1000		0	0	Chronos				TrialProc08	and annie a tulip	0	5	Chronos	1	3	224934	0	1	1731	226665	G	Trials	5-2	G	14	1	14	katie	?	?	?	?	?	?	?	?	?	?	threw	?	?	?	?	?	?	?	?	?	?	a	?	?	?	?	?	?	?	?	?	?	daisy	?	and	annie	a	tulip	?	1	6	223934	94																									0	1	224028	93	0	0	224121	93	1	0	224214	94	0	1	224308	93	0	0	224401	93	1	0	224494	94	0	1	224588	93				
RSVP_Experiment_1_List_A_1	10	1	1	5	Chronos	5	1841	341724	1	1	Chronos	1	2231	343967	1	1	Chronos	1	988	344964	<ChronosDeviceInfo><FriendlyName>MyChronos</FriendlyName><DeviceIndex>1</DeviceIndex><SerialNumber>CHR-04303-2970</SerialNumber><EBNVersion>3.0.3.80</EBNVersion><FirmwareVersion>1.33</FirmwareVersion><APIVersion>1.33</APIVersion><USBHostControllerVersion>3.0</USBHostControllerVersion><USBConnectionRoute>USB#ROOT_HUB30#4&769a227&0&0#{f18a0e88-c30c-11d0-8815-00a0c906bed8} + VID_2266&PID_0007(12)</USBConnectionRoute></ChronosDeviceInfo>	<?xml version="1.0"?>\n<Clock xmlns:dt="urn:schemas-microsoft-com:datatypes"><Description dt:dt="string">E-Prime Primary Realtime Clock</Description><StartTime><Timestamp dt:dt="int">0</Timestamp><DateUtc dt:dt="string">2019-12-04T18:42:01Z</DateUtc></StartTime><FrequencyChanges><FrequencyChange><Frequency dt:dt="r8">10000000</Frequency><Timestamp dt:dt="r8">26034703471183</Timestamp><Current dt:dt="r8">0</Current><DateUtc dt:dt="string">2019-12-04T18:42:01Z</DateUtc></FrequencyChange></FrequencyChanges></Clock>\n	Chronos	RSVP_Experiment_1_List_A_1-10-1	75.001	Chronos	1.0.0.283	Chronos	1	Chronos	Chronos	Chronos	Chronos	Chronos	Chronos	Chronos	Chronos	Chronos	1	1	Chronos	1	2069	347045	-1385639878	Full	3.0.3.80	3.0.3.80	12-04-2019	12/4/2019 6:42:02 PM	13:42:02	3.0.3.82	Chronos	18	1	93		0	0		0	0	1	Chronos	0	7	233668	1000		0	0	Chronos				TrialProc09	and wore the crow	1	1	Chronos	1	3	231694	0	1	1967	233661	S	Trials	4-3	S	15	1	15	the	?	?	?	?	?	?	?	?	?	?	hawk	?	?	?	?	?	?	?	?	?	?	wore	?	?	?	?	?	?	?	?	?	?	a	?	shoe	and	the	crow	too	0	7	230601	93																									1	0	230694	94	0	1	230788	93	0	0	230881	93	1	0	230974	94	0	1	231068	93	0	0	231161	93	1	0	231254	94	0	1	231348	93
RSVP_Experiment_1_List_A_1	10	1	1	5	Chronos	5	1841	341724	1	1	Chronos	1	2231	343967	1	1	Chronos	1	988	344964	<ChronosDeviceInfo><FriendlyName>MyChronos</FriendlyName><DeviceIndex>1</DeviceIndex><SerialNumber>CHR-04303-2970</SerialNumber><EBNVersion>3.0.3.80</EBNVersion><FirmwareVersion>1.33</FirmwareVersion><APIVersion>1.33</APIVersion><USBHostControllerVersion>3.0</USBHostControllerVersion><USBConnectionRoute>USB#ROOT_HUB30#4&769a227&0&0#{f18a0e88-c30c-11d0-8815-00a0c906bed8} + VID_2266&PID_0007(12)</USBConnectionRoute></ChronosDeviceInfo>	<?xml version="1.0"?>\n<Clock xmlns:dt="urn:schemas-microsoft-com:datatypes"><Description dt:dt="string">E-Prime Primary Realtime Clock</Description><StartTime><Timestamp dt:dt="int">0</Timestamp><DateUtc dt:dt="string">2019-12-04T18:42:01Z</DateUtc></StartTime><FrequencyChanges><FrequencyChange><Frequency dt:dt="r8">10000000</Frequency><Timestamp dt:dt="r8">26034703471183</Timestamp><Current dt:dt="r8">0</Current><DateUtc dt:dt="string">2019-12-04T18:42:01Z</DateUtc></FrequencyChange></FrequencyChanges></Clock>\n	Chronos	RSVP_Experiment_1_List_A_1-10-1	75.001	Chronos	1.0.0.283	Chronos	1	Chronos	Chronos	Chronos	Chronos	Chronos	Chronos	Chronos	Chronos	Chronos	1	1	Chronos	1	2069	347045	-1385639878	Full	3.0.3.80	3.0.3.80	12-04-2019	12/4/2019 6:42:02 PM	13:42:02	3.0.3.82	Chronos	19	5	93		0	0		0	0	5	Chronos	0	8	239668	1000		0	0	Chronos				TrialProc09	and linda drove	1	5	Chronos	1	3	238334	0	5	1326	239660	NE	Trials	5-3	NE	16	1	16	susan	?	?	?	?	?	?	?	?	?	?	drove	?	?	?	?	?	?	?	?	?	?	a	?	?	?	?	?	?	?	?	?	?	honda	?	and	linda	drove	a	chevy	1	7	237241	93																									1	0	237334	94	0	1	237428	93	0	0	237521	93	1	0	237614	94	0	1	237708	93	0	0	237801	93	1	0	237894	94	0	1	237988	93
RSVP_Experiment_1_List_A_1	10	1	1	5	Chronos	5	1841	341724	1	1	Chronos	1	2231	343967	1	1	Chronos	1	988	344964	<ChronosDeviceInfo><FriendlyName>MyChronos</FriendlyName><DeviceIndex>1</DeviceIndex><SerialNumber>CHR-04303-2970</SerialNumber><EBNVersion>3.0.3.80</EBNVersion><FirmwareVersion>1.33</FirmwareVersion><APIVersion>1.33</APIVersion><USBHostControllerVersion>3.0</USBHostControllerVersion><USBConnectionRoute>USB#ROOT_HUB30#4&769a227&0&0#{f18a0e88-c30c-11d0-8815-00a0c906bed8} + VID_2266&PID_0007(12)</USBConnectionRoute></ChronosDeviceInfo>	<?xml version="1.0"?>\n<Clock xmlns:dt="urn:schemas-microsoft-com:datatypes"><Description dt:dt="string">E-Prime Primary Realtime Clock</Description><StartTime><Timestamp dt:dt="int">0</Timestamp><DateUtc dt:dt="string">2019-12-04T18:42:01Z</DateUtc></StartTime><FrequencyChanges><FrequencyChange><Frequency dt:dt="r8">10000000</Frequency><Timestamp dt:dt="r8">26034703471183</Timestamp><Current dt:dt="r8">0</Current><DateUtc dt:dt="string">2019-12-04T18:42:01Z</DateUtc></FrequencyChange></FrequencyChanges></Clock>\n	Chronos	RSVP_Experiment_1_List_A_1-10-1	75.001	Chronos	1.0.0.283	Chronos	1	Chronos	Chronos	Chronos	Chronos	Chronos	Chronos	Chronos	Chronos	Chronos	1	1	Chronos	1	2069	347045	-1385639878	Full	3.0.3.80	3.0.3.80	12-04-2019	12/4/2019 6:42:02 PM	13:42:02	3.0.3.82	Chronos	20	5	93		0	1		0	0	5	Chronos	0	11	246055	1000		0	0	Chronos				TrialProc13	from her garden	1	5	Chronos	0	3	244468	0	5	1576	246044	F	Trials	Filler9	F	17	1	17	mary	and	twenty	cents	each	?	?	?	?	?	?	has	?	?	?	?	?	?	?	?	?	?	roses	?	?	?	?	?	?	?	?	?	?	from	?	her	garden	for	one	dollar	1	6	243001	94	1	0	243841	94	0	1	243935	93	0	0	244028	93	1	0	244121	94									0	1	243095	93	0	0	243188	93	1	0	243281	94	0	1	243375	93	0	0	243468	93	1	0	243561	94	0	1	243655	93	0	0	243748	93
RSVP_Experiment_1_List_A_1	10	1	1	5	Chronos	5	1841	341724	1	1	Chronos	1	2231	343967	1	1	Chronos	1	988	344964	<ChronosDeviceInfo><FriendlyName>MyChronos</FriendlyName><DeviceIndex>1</DeviceIndex><SerialNumber>CHR-04303-2970</SerialNumber><EBNVersion>3.0.3.80</EBNVersion><FirmwareVersion>1.33</FirmwareVersion><APIVersion>1.33</APIVersion><USBHostControllerVersion>3.0</USBHostControllerVersion><USBConnectionRoute>USB#ROOT_HUB30#4&769a227&0&0#{f18a0e88-c30c-11d0-8815-00a0c906bed8} + VID_2266&PID_0007(12)</USBConnectionRoute></ChronosDeviceInfo>	<?xml version="1.0"?>\n<Clock xmlns:dt="urn:schemas-microsoft-com:datatypes"><Description dt:dt="string">E-Prime Primary Realtime Clock</Description><StartTime><Timestamp dt:dt="int">0</Timestamp><DateUtc dt:dt="string">2019-12-04T18:42:01Z</DateUtc></StartTime><FrequencyChanges><FrequencyChange><Frequency dt:dt="r8">10000000</Frequency><Timestamp dt:dt="r8">26034703471183</Timestamp><Current dt:dt="r8">0</Current><DateUtc dt:dt="string">2019-12-04T18:42:01Z</DateUtc></FrequencyChange></FrequencyChanges></Clock>\n	Chronos	RSVP_Experiment_1_List_A_1-10-1	75.001	Chronos	1.0.0.283	Chronos	1	Chronos	Chronos	Chronos	Chronos	Chronos	Chronos	Chronos	Chronos	Chronos	1	1	Chronos	1	2069	347045	-1385639878	Full	3.0.3.80	3.0.3.80	12-04-2019	12/4/2019 6:42:02 PM	13:42:02	3.0.3.82	Chronos	21	1	93		0	0		0	0	1	Chronos	0	8	255815	1000		0	0	Chronos				TrialProc11	meghan wanted a nissan	1	1	Chronos	1	3	251201	0	1	4606	255807	GS	Trials	6-5	GS	18	1	18	lauren	meghan	too	?	?	?	?	?	?	?	?	wanted	?	?	?	?	?	?	?	?	?	?	a	?	?	?	?	?	?	?	?	?	?	toyota	?	and	ashley	a	nissan	and	1	6	249921	94	1	0	250761	94	0	1	250855	93																	0	1	250015	93	0	0	250108	93	1	0	250201	94	0	1	250295	93	0	0	250388	93	1	0	250481	94	0	1	250575	93	0	0	250668	93
RSVP_Experiment_1_List_A_1	10	1	1	5	Chronos	5	1841	341724	1	1	Chronos	1	2231	343967	1	1	Chronos	1	988	344964	<ChronosDeviceInfo><FriendlyName>MyChronos</FriendlyName><DeviceIndex>1</DeviceIndex><SerialNumber>CHR-04303-2970</SerialNumber><EBNVersion>3.0.3.80</EBNVersion><FirmwareVersion>1.33</FirmwareVersion><APIVersion>1.33</APIVersion><USBHostControllerVersion>3.0</USBHostControllerVersion><USBConnectionRoute>USB#ROOT_HUB30#4&769a227&0&0#{f18a0e88-c30c-11d0-8815-00a0c906bed8} + VID_2266&PID_0007(12)</USBConnectionRoute></ChronosDeviceInfo>	<?xml version="1.0"?>\n<Clock xmlns:dt="urn:schemas-microsoft-com:datatypes"><Description dt:dt="string">E-Prime Primary Realtime Clock</Description><StartTime><Timestamp dt:dt="int">0</Timestamp><DateUtc dt:dt="string">2019-12-04T18:42:01Z</DateUtc></StartTime><FrequencyChanges><FrequencyChange><Frequency dt:dt="r8">10000000</Frequency><Timestamp dt:dt="r8">26034703471183</Timestamp><Current dt:dt="r8">0</Current><DateUtc dt:dt="string">2019-12-04T18:42:01Z</DateUtc></FrequencyChange></FrequencyChanges></Clock>\n	Chronos	RSVP_Experiment_1_List_A_1-10-1	75.001	Chronos	1.0.0.283	Chronos	1	Chronos	Chronos	Chronos	Chronos	Chronos	Chronos	Chronos	Chronos	Chronos	1	1	Chronos	1	2069	347045	-1385639878	Full	3.0.3.80	3.0.3.80	12-04-2019	12/4/2019 6:42:02 PM	13:42:02	3.0.3.82	Chronos	22	1	93		0	0		0	0	1	Chronos	1	11	261588	1000		0	0	Chronos				TrialProc09	france import large amounts	0	1	Chronos	1	3	259961	0	5	1616	261577	F	Trials	Filler10	F	19	1	19	canada	?	?	?	?	?	?	?	?	?	?	france	?	?	?	?	?	?	?	?	?	?	and	?	?	?	?	?	?	?	?	?	?	italy	?	import	large	amounts	of	jeans	1	7	258868	93																									1	0	258961	94	0	1	259055	93	1	0	259148	93	1	0	259241	94	0	1	259335	93	1	0	259428	93	1	0	259521	94	0	1	259615	93
RSVP_Experiment_1_List_A_1	10	1	1	5	Chronos	5	1841	341724	1	1	Chronos	1	2231	343967	1	1	Chronos	1	988	344964	<ChronosDeviceInfo><FriendlyName>MyChronos</FriendlyName><DeviceIndex>1</DeviceIndex><SerialNumber>CHR-04303-2970</SerialNumber><EBNVersion>3.0.3.80</EBNVersion><FirmwareVersion>1.33</FirmwareVersion><APIVersion>1.33</APIVersion><USBHostControllerVersion>3.0</USBHostControllerVersion><USBConnectionRoute>USB#ROOT_HUB30#4&769a227&0&0#{f18a0e88-c30c-11d0-8815-00a0c906bed8} + VID_2266&PID_0007(12)</USBConnectionRoute></ChronosDeviceInfo>	<?xml version="1.0"?>\n<Clock xmlns:dt="urn:schemas-microsoft-com:datatypes"><Description dt:dt="string">E-Prime Primary Realtime Clock</Description><StartTime><Timestamp dt:dt="int">0</Timestamp><DateUtc dt:dt="string">2019-12-04T18:42:01Z</DateUtc></StartTime><FrequencyChanges><FrequencyChange><Frequency dt:dt="r8">10000000</Frequency><Timestamp dt:dt="r8">26034703471183</Timestamp><Current dt:dt="r8">0</Current><DateUtc dt:dt="string">2019-12-04T18:42:01Z</DateUtc></FrequencyChange></FrequencyChanges></Clock>\n	Chronos	RSVP_Experiment_1_List_A_1-10-1	75.001	Chronos	1.0.0.283	Chronos	1	Chronos	Chronos	Chronos	Chronos	Chronos	Chronos	Chronos	Chronos	Chronos	1	1	Chronos	1	2069	347045	-1385639878	Full	3.0.3.80	3.0.3.80	12-04-2019	12/4/2019 6:42:02 PM	13:42:02	3.0.3.82	Chronos	23	1	93		0	0		0	0	1	Chronos	0	15	268695	1000		0	0	Chronos				TrialProc11	scott build a condo	0	1	Chronos	1	3	266348	0	5	2332	268680	SG	Trials	5-4	SG	20	1	20	david	a	condo	?	?	?	?	?	?	?	?	built	?	?	?	?	?	?	?	?	?	?	a	?	?	?	?	?	?	?	?	?	?	house	?	and	scott	too	and	james	1	6	265068	94	1	0	265908	94	0	1	266002	93																	0	1	265162	93	0	0	265255	93	1	0	265348	94	0	1	265442	93	0	0	265535	93	1	0	265628	94	0	1	265722	93	0	0	265815	93
RSVP_Experiment_1_List_A_1	10	1	1	5	Chronos	5	1841	341724	1	1	Chronos	1	2231	343967	1	1	Chronos	1	988	344964	<ChronosDeviceInfo><FriendlyName>MyChronos</FriendlyName><DeviceIndex>1</DeviceIndex><SerialNumber>CHR-04303-2970</SerialNumber><EBNVersion>3.0.3.80</EBNVersion><FirmwareVersion>1.33</FirmwareVersion><APIVersion>1.33</APIVersion><USBHostControllerVersion>3.0</USBHostControllerVersion><USBConnectionRoute>USB#ROOT_HUB30#4&769a227&0&0#{f18a0e88-c30c-11d0-8815-00a0c906bed8} + VID_2266&PID_0007(12)</USBConnectionRoute></ChronosDeviceInfo>	<?xml version="1.0"?>\n<Clock xmlns:dt="urn:schemas-microsoft-com:datatypes"><Description dt:dt="string">E-Prime Primary Realtime Clock</Description><StartTime><Timestamp dt:dt="int">0</Timestamp><DateUtc dt:dt="string">2019-12-04T18:42:01Z</DateUtc></StartTime><FrequencyChanges><FrequencyChange><Frequency dt:dt="r8">10000000</Frequency><Timestamp dt:dt="r8">26034703471183</Timestamp><Current dt:dt="r8">0</Current><DateUtc dt:dt="string">2019-12-04T18:42:01Z</DateUtc></FrequencyChange></FrequencyChanges></Clock>\n	Chronos	RSVP_Experiment_1_List_A_1-10-1	75.001	Chronos	1.0.0.283	Chronos	1	Chronos	Chronos	Chronos	Chronos	Chronos	Chronos	Chronos	Chronos	Chronos	1	1	Chronos	1	2069	347045	-1385639878	Full	3.0.3.80	3.0.3.80	12-04-2019	12/4/2019 6:42:02 PM	13:42:02	3.0.3.82	Chronos	24	5	93		0	0		0	0	5	Chronos	0	13	276522	1000		0	0	Chronos				TrialProc09	cats live inside	1	5	Chronos	1	3	274228	0	5	2280	276508	F	Trials	Filler11	F	21	1	21	dogs	?	?	?	?	?	?	?	?	?	?	and	?	?	?	?	?	?	?	?	?	?	cats	?	?	?	?	?	?	?	?	?	?	live	?	inside	but	horses	live	outside	0	7	273135	93																									1	0	273228	94	0	1	273322	93	0	0	273415	93	1	0	273508	94	0	1	273602	93	0	0	273695	93	1	0	273788	94	0	1	273882	93
RSVP_Experiment_1_List_A_1	10	1	1	5	Chronos	5	1841	341724	1	1	Chronos	1	2231	343967	1	1	Chronos	1	988	344964	<ChronosDeviceInfo><FriendlyName>MyChronos</FriendlyName><DeviceIndex>1</DeviceIndex><SerialNumber>CHR-04303-2970</SerialNumber><EBNVersion>3.0.3.80</EBNVersion><FirmwareVersion>1.33</FirmwareVersion><APIVersion>1.33</APIVersion><USBHostControllerVersion>3.0</USBHostControllerVersion><USBConnectionRoute>USB#ROOT_HUB30#4&769a227&0&0#{f18a0e88-c30c-11d0-8815-00a0c906bed8} + VID_2266&PID_0007(12)</USBConnectionRoute></ChronosDeviceInfo>	<?xml version="1.0"?>\n<Clock xmlns:dt="urn:schemas-microsoft-com:datatypes"><Description dt:dt="string">E-Prime Primary Realtime Clock</Description><StartTime><Timestamp dt:dt="int">0</Timestamp><DateUtc dt:dt="string">2019-12-04T18:42:01Z</DateUtc></StartTime><FrequencyChanges><FrequencyChange><Frequency dt:dt="r8">10000000</Frequency><Timestamp dt:dt="r8">26034703471183</Timestamp><Current dt:dt="r8">0</Current><DateUtc dt:dt="string">2019-12-04T18:42:01Z</DateUtc></FrequencyChange></FrequencyChanges></Clock>\n	Chronos	RSVP_Experiment_1_List_A_1-10-1	75.001	Chronos	1.0.0.283	Chronos	1	Chronos	Chronos	Chronos	Chronos	Chronos	Chronos	Chronos	Chronos	Chronos	1	1	Chronos	1	2069	347045	-1385639878	Full	3.0.3.80	3.0.3.80	12-04-2019	12/4/2019 6:42:02 PM	13:42:02	3.0.3.82	Chronos	25	5	93		0	0		0	0	5	Chronos	1	8	282615	1000		0	0	Chronos				TrialProc11	jane drive a ford	1	5	Chronos	1	3	280775	0	5	1832	282607	GS	Trials	Filler12	F	22	1	22	mary	jaguar	respectively	?	?	?	?	?	?	?	?	ann	?	?	?	?	?	?	?	?	?	?	and	?	?	?	?	?	?	?	?	?	?	jane	?	drive	a	ford	toyota	and	1	7	279495	93	1	0	280335	94	0	1	280429	93																	1	0	279588	94	0	1	279682	93	1	0	279775	93	1	0	279868	94	0	1	279962	93	1	0	280055	93	1	0	280148	94	0	1	280242	93
RSVP_Experiment_1_List_A_1	10	1	1	5	Chronos	5	1841	341724	1	1	Chronos	1	2231	343967	1	1	Chronos	1	988	344964	<ChronosDeviceInfo><FriendlyName>MyChronos</FriendlyName><DeviceIndex>1</DeviceIndex><SerialNumber>CHR-04303-2970</SerialNumber><EBNVersion>3.0.3.80</EBNVersion><FirmwareVersion>1.33</FirmwareVersion><APIVersion>1.33</APIVersion><USBHostControllerVersion>3.0</USBHostControllerVersion><USBConnectionRoute>USB#ROOT_HUB30#4&769a227&0&0#{f18a0e88-c30c-11d0-8815-00a0c906bed8} + VID_2266&PID_0007(12)</USBConnectionRoute></ChronosDeviceInfo>	<?xml version="1.0"?>\n<Clock xmlns:dt="urn:schemas-microsoft-com:datatypes"><Description dt:dt="string">E-Prime Primary Realtime Clock</Description><StartTime><Timestamp dt:dt="int">0</Timestamp><DateUtc dt:dt="string">2019-12-04T18:42:01Z</DateUtc></StartTime><FrequencyChanges><FrequencyChange><Frequency dt:dt="r8">10000000</Frequency><Timestamp dt:dt="r8">26034703471183</Timestamp><Current dt:dt="r8">0</Current><DateUtc dt:dt="string">2019-12-04T18:42:01Z</DateUtc></FrequencyChange></FrequencyChanges></Clock>\n	Chronos	RSVP_Experiment_1_List_A_1-10-1	75.001	Chronos	1.0.0.283	Chronos	1	Chronos	Chronos	Chronos	Chronos	Chronos	Chronos	Chronos	Chronos	Chronos	1	1	Chronos	1	2069	347045	-1385639878	Full	3.0.3.80	3.0.3.80	12-04-2019	12/4/2019 6:42:02 PM	13:42:02	3.0.3.82	Chronos	26	1	93		0	0		0	0	1	Chronos	0	7	288629	1000		0	0	Chronos				TrialProc10	yale play ohio	1	1	Chronos	1	3	286855	0	1	1767	288622	GS	Trials	4-4	GS	23	1	23	duke	too	?	?	?	?	?	?	?	?	?	will	?	?	?	?	?	?	?	?	?	?	play	?	?	?	?	?	?	?	?	?	?	ohio	?	and	penn	utah	and	yale	0	7	285669	93	0	1	286509	93																					0	0	285762	93	1	0	285855	94	0	1	285949	93	0	0	286042	93	1	0	286135	94	0	1	286229	93	0	0	286322	93	1	0	286415	94
RSVP_Experiment_1_List_A_1	10	1	1	5	Chronos	5	1841	341724	1	1	Chronos	1	2231	343967	1	1	Chronos	1	988	344964	<ChronosDeviceInfo><FriendlyName>MyChronos</FriendlyName><DeviceIndex>1</DeviceIndex><SerialNumber>CHR-04303-2970</SerialNumber><EBNVersion>3.0.3.80</EBNVersion><FirmwareVersion>1.33</FirmwareVersion><APIVersion>1.33</APIVersion><USBHostControllerVersion>3.0</USBHostControllerVersion><USBConnectionRoute>USB#ROOT_HUB30#4&769a227&0&0#{f18a0e88-c30c-11d0-8815-00a0c906bed8} + VID_2266&PID_0007(12)</USBConnectionRoute></ChronosDeviceInfo>	<?xml version="1.0"?>\n<Clock xmlns:dt="urn:schemas-microsoft-com:datatypes"><Description dt:dt="string">E-Prime Primary Realtime Clock</Description><StartTime><Timestamp dt:dt="int">0</Timestamp><DateUtc dt:dt="string">2019-12-04T18:42:01Z</DateUtc></StartTime><FrequencyChanges><FrequencyChange><Frequency dt:dt="r8">10000000</Frequency><Timestamp dt:dt="r8">26034703471183</Timestamp><Current dt:dt="r8">0</Current><DateUtc dt:dt="string">2019-12-04T18:42:01Z</DateUtc></FrequencyChange></FrequencyChanges></Clock>\n	Chronos	RSVP_Experiment_1_List_A_1-10-1	75.001	Chronos	1.0.0.283	Chronos	1	Chronos	Chronos	Chronos	Chronos	Chronos	Chronos	Chronos	Chronos	Chronos	1	1	Chronos	1	2069	347045	-1385639878	Full	3.0.3.80	3.0.3.80	12-04-2019	12/4/2019 6:42:02 PM	13:42:02	3.0.3.82	Chronos	27	1	93		1	0		0	0	1	Chronos	0	12	294469	1000		0	0	Chronos				TrialProc15	milk can be	0	1	Chronos	0	4	293589	0	5	868	294457	F	Trials	Filler13	F	24	1	24	water	city	like	chicago	miami	or	atlanta	?	?	?	?	milk	?	?	?	?	?	?	?	?	?	?	and	?	?	?	?	?	?	?	?	?	?	beer	?	can	be	found	in	any	1	6	291935	94	1	0	292775	94	0	1	292869	93	0	0	292962	93	1	0	293055	94	0	1	293149	93	0	0	293242	93	0	1	292029	93	0	0	292122	93	1	0	292215	94	0	1	292309	93	0	0	292402	93	1	0	292495	94	0	1	292589	93	0	0	292682	93
RSVP_Experiment_1_List_A_1	10	1	1	5	Chronos	5	1841	341724	1	1	Chronos	1	2231	343967	1	1	Chronos	1	988	344964	<ChronosDeviceInfo><FriendlyName>MyChronos</FriendlyName><DeviceIndex>1</DeviceIndex><SerialNumber>CHR-04303-2970</SerialNumber><EBNVersion>3.0.3.80</EBNVersion><FirmwareVersion>1.33</FirmwareVersion><APIVersion>1.33</APIVersion><USBHostControllerVersion>3.0</USBHostControllerVersion><USBConnectionRoute>USB#ROOT_HUB30#4&769a227&0&0#{f18a0e88-c30c-11d0-8815-00a0c906bed8} + VID_2266&PID_0007(12)</USBConnectionRoute></ChronosDeviceInfo>	<?xml version="1.0"?>\n<Clock xmlns:dt="urn:schemas-microsoft-com:datatypes"><Description dt:dt="string">E-Prime Primary Realtime Clock</Description><StartTime><Timestamp dt:dt="int">0</Timestamp><DateUtc dt:dt="string">2019-12-04T18:42:01Z</DateUtc></StartTime><FrequencyChanges><FrequencyChange><Frequency dt:dt="r8">10000000</Frequency><Timestamp dt:dt="r8">26034703471183</Timestamp><Current dt:dt="r8">0</Current><DateUtc dt:dt="string">2019-12-04T18:42:01Z</DateUtc></FrequencyChange></FrequencyChanges></Clock>\n	Chronos	RSVP_Experiment_1_List_A_1-10-1	75.001	Chronos	1.0.0.283	Chronos	1	Chronos	Chronos	Chronos	Chronos	Chronos	Chronos	Chronos	Chronos	Chronos	1	1	Chronos	1	2069	347045	-1385639878	Full	3.0.3.80	3.0.3.80	12-04-2019	12/4/2019 6:42:02 PM	13:42:02	3.0.3.82	Chronos	28	5	93		0	0		0	0	5	Chronos	0	5	300429	1000		0	0	Chronos				TrialProc08	and peter the table	0	5	Chronos	1	3	298735	0	1	1689	300424	G	Trials	5-5	G	25	1	25	jason	?	?	?	?	?	?	?	?	?	?	broke	?	?	?	?	?	?	?	?	?	?	the	?	?	?	?	?	?	?	?	?	?	chair	?	and	peter	the	table	?	1	6	297735	94																									0	1	297829	93	0	0	297922	93	1	0	298015	94	0	1	298109	93	0	0	298202	93	1	0	298295	94	0	1	298389	93				
RSVP_Experiment_1_List_A_1	10	1	1	5	Chronos	5	1841	341724	1	1	Chronos	1	2231	343967	1	1	Chronos	1	988	344964	<ChronosDeviceInfo><FriendlyName>MyChronos</FriendlyName><DeviceIndex>1</DeviceIndex><SerialNumber>CHR-04303-2970</SerialNumber><EBNVersion>3.0.3.80</EBNVersion><FirmwareVersion>1.33</FirmwareVersion><APIVersion>1.33</APIVersion><USBHostControllerVersion>3.0</USBHostControllerVersion><USBConnectionRoute>USB#ROOT_HUB30#4&769a227&0&0#{f18a0e88-c30c-11d0-8815-00a0c906bed8} + VID_2266&PID_0007(12)</USBConnectionRoute></ChronosDeviceInfo>	<?xml version="1.0"?>\n<Clock xmlns:dt="urn:schemas-microsoft-com:datatypes"><Description dt:dt="string">E-Prime Primary Realtime Clock</Description><StartTime><Timestamp dt:dt="int">0</Timestamp><DateUtc dt:dt="string">2019-12-04T18:42:01Z</DateUtc></StartTime><FrequencyChanges><FrequencyChange><Frequency dt:dt="r8">10000000</Frequency><Timestamp dt:dt="r8">26034703471183</Timestamp><Current dt:dt="r8">0</Current><DateUtc dt:dt="string">2019-12-04T18:42:01Z</DateUtc></FrequencyChange></FrequencyChanges></Clock>\n	Chronos	RSVP_Experiment_1_List_A_1-10-1	75.001	Chronos	1.0.0.283	Chronos	1	Chronos	Chronos	Chronos	Chronos	Chronos	Chronos	Chronos	Chronos	Chronos	1	1	Chronos	1	2069	347045	-1385639878	Full	3.0.3.80	3.0.3.80	12-04-2019	12/4/2019 6:42:02 PM	13:42:02	3.0.3.82	Chronos	29	1	93		1	0		0	0	1	Chronos	1	9	307682	1000		0	0	Chronos				TrialProc07	harvard team will	1	1	Chronos	0	4	305616	0	1	2057	307673	F	Trials	Filler14	F	26	1	26	the	?	?	?	?	?	?	?	?	?	?	harvard	?	?	?	?	?	?	?	?	?	?	tennis	?	?	?	?	?	?	?	?	?	?	team	?	will	play	texas	?	?	0	7	304709	93																									1	0	304802	94	0	1	304896	93	0	0	304989	93	1	0	305082	94	0	1	305176	93	0	0	305269	93								
RSVP_Experiment_1_List_A_1	10	1	1	5	Chronos	5	1841	341724	1	1	Chronos	1	2231	343967	1	1	Chronos	1	988	344964	<ChronosDeviceInfo><FriendlyName>MyChronos</FriendlyName><DeviceIndex>1</DeviceIndex><SerialNumber>CHR-04303-2970</SerialNumber><EBNVersion>3.0.3.80</EBNVersion><FirmwareVersion>1.33</FirmwareVersion><APIVersion>1.33</APIVersion><USBHostControllerVersion>3.0</USBHostControllerVersion><USBConnectionRoute>USB#ROOT_HUB30#4&769a227&0&0#{f18a0e88-c30c-11d0-8815-00a0c906bed8} + VID_2266&PID_0007(12)</USBConnectionRoute></ChronosDeviceInfo>	<?xml version="1.0"?>\n<Clock xmlns:dt="urn:schemas-microsoft-com:datatypes"><Description dt:dt="string">E-Prime Primary Realtime Clock</Description><StartTime><Timestamp dt:dt="int">0</Timestamp><DateUtc dt:dt="string">2019-12-04T18:42:01Z</DateUtc></StartTime><FrequencyChanges><FrequencyChange><Frequency dt:dt="r8">10000000</Frequency><Timestamp dt:dt="r8">26034703471183</Timestamp><Current dt:dt="r8">0</Current><DateUtc dt:dt="string">2019-12-04T18:42:01Z</DateUtc></FrequencyChange></FrequencyChanges></Clock>\n	Chronos	RSVP_Experiment_1_List_A_1-10-1	75.001	Chronos	1.0.0.283	Chronos	1	Chronos	Chronos	Chronos	Chronos	Chronos	Chronos	Chronos	Chronos	Chronos	1	1	Chronos	1	2069	347045	-1385639878	Full	3.0.3.80	3.0.3.80	12-04-2019	12/4/2019 6:42:02 PM	13:42:02	3.0.3.82	Chronos	30	1	93		0	1		0	0	1	Chronos	1	15	314242	1000		0	0	Chronos				TrialProc09	london bought copper	0	1	Chronos	0	3	312549	0	5	1678	314227	SG	Trials	6-1	SG	27	1	27	denver	?	?	?	?	?	?	?	?	?	?	bought	?	?	?	?	?	?	?	?	?	?	copper	?	?	?	?	?	?	?	?	?	?	and	?	london	too	and	boston	carbon	0	7	311456	93																									0	0	311549	93	1	0	311642	94	0	1	311736	93	1	0	311829	93	1	0	311922	94	0	1	312016	93	0	0	312109	93	1	0	312202	94
RSVP_Experiment_1_List_A_1	10	1	1	5	Chronos	5	1841	341724	1	1	Chronos	1	2231	343967	1	1	Chronos	1	988	344964	<ChronosDeviceInfo><FriendlyName>MyChronos</FriendlyName><DeviceIndex>1</DeviceIndex><SerialNumber>CHR-04303-2970</SerialNumber><EBNVersion>3.0.3.80</EBNVersion><FirmwareVersion>1.33</FirmwareVersion><APIVersion>1.33</APIVersion><USBHostControllerVersion>3.0</USBHostControllerVersion><USBConnectionRoute>USB#ROOT_HUB30#4&769a227&0&0#{f18a0e88-c30c-11d0-8815-00a0c906bed8} + VID_2266&PID_0007(12)</USBConnectionRoute></ChronosDeviceInfo>	<?xml version="1.0"?>\n<Clock xmlns:dt="urn:schemas-microsoft-com:datatypes"><Description dt:dt="string">E-Prime Primary Realtime Clock</Description><StartTime><Timestamp dt:dt="int">0</Timestamp><DateUtc dt:dt="string">2019-12-04T18:42:01Z</DateUtc></StartTime><FrequencyChanges><FrequencyChange><Frequency dt:dt="r8">10000000</Frequency><Timestamp dt:dt="r8">26034703471183</Timestamp><Current dt:dt="r8">0</Current><DateUtc dt:dt="string">2019-12-04T18:42:01Z</DateUtc></FrequencyChange></FrequencyChanges></Clock>\n	Chronos	RSVP_Experiment_1_List_A_1-10-1	75.001	Chronos	1.0.0.283	Chronos	1	Chronos	Chronos	Chronos	Chronos	Chronos	Chronos	Chronos	Chronos	Chronos	1	1	Chronos	1	2069	347045	-1385639878	Full	3.0.3.80	3.0.3.80	12-04-2019	12/4/2019 6:42:02 PM	13:42:02	3.0.3.82	Chronos	31	1	93		0	1		0	0	1	Chronos	0	12	319829	1000		0	0	Chronos				TrialProc10	learning to fix	0	1	Chronos	0	3	318789	0	5	1028	319817	F	Trials	Filler15	F	28	1	28	michael	door	?	?	?	?	?	?	?	?	?	spent	?	?	?	?	?	?	?	?	?	?	all	?	?	?	?	?	?	?	?	?	?	night	?	learning	how	too	fix	the	1	6	317602	94	1	0	318442	94																					0	1	317696	93	0	0	317789	93	1	0	317882	94	0	1	317976	93	0	0	318069	93	1	0	318162	94	0	1	318256	93	0	0	318349	93
RSVP_Experiment_1_List_A_1	10	1	1	5	Chronos	5	1841	341724	1	1	Chronos	1	2231	343967	1	1	Chronos	1	988	344964	<ChronosDeviceInfo><FriendlyName>MyChronos</FriendlyName><DeviceIndex>1</DeviceIndex><SerialNumber>CHR-04303-2970</SerialNumber><EBNVersion>3.0.3.80</EBNVersion><FirmwareVersion>1.33</FirmwareVersion><APIVersion>1.33</APIVersion><USBHostControllerVersion>3.0</USBHostControllerVersion><USBConnectionRoute>USB#ROOT_HUB30#4&769a227&0&0#{f18a0e88-c30c-11d0-8815-00a0c906bed8} + VID_2266&PID_0007(12)</USBConnectionRoute></ChronosDeviceInfo>	<?xml version="1.0"?>\n<Clock xmlns:dt="urn:schemas-microsoft-com:datatypes"><Description dt:dt="string">E-Prime Primary Realtime Clock</Description><StartTime><Timestamp dt:dt="int">0</Timestamp><DateUtc dt:dt="string">2019-12-04T18:42:01Z</DateUtc></StartTime><FrequencyChanges><FrequencyChange><Frequency dt:dt="r8">10000000</Frequency><Timestamp dt:dt="r8">26034703471183</Timestamp><Current dt:dt="r8">0</Current><DateUtc dt:dt="string">2019-12-04T18:42:01Z</DateUtc></FrequencyChange></FrequencyChanges></Clock>\n	Chronos	RSVP_Experiment_1_List_A_1-10-1	75.001	Chronos	1.0.0.283	Chronos	1	Chronos	Chronos	Chronos	Chronos	Chronos	Chronos	Chronos	Chronos	Chronos	1	1	Chronos	1	2069	347045	-1385639878	Full	3.0.3.80	3.0.3.80	12-04-2019	12/4/2019 6:42:02 PM	13:42:02	3.0.3.82	Chronos	32	1	93		1	0		0	0	1	Chronos	1	16	327189	1000		0	0	Chronos				TrialProc06	and mines paul	0	1	Chronos	0	4	323923	0	5	3250	327173	S	Trials	4-1	S	29	1	29	phil	?	?	?	?	?	?	?	?	?	?	mines	?	?	?	?	?	?	?	?	?	?	gold	?	?	?	?	?	?	?	?	?	?	and	?	paul	too	?	?	?	1	7	323109	94																									0	1	323203	93	0	0	323296	93	1	0	323389	93	1	0	323482	94	0	1	323576	93												
RSVP_Experiment_1_List_A_1	10	1	1	5	Chronos	5	1841	341724	1	1	Chronos	1	2231	343967	1	1	Chronos	1	988	344964	<ChronosDeviceInfo><FriendlyName>MyChronos</FriendlyName><DeviceIndex>1</DeviceIndex><SerialNumber>CHR-04303-2970</SerialNumber><EBNVersion>3.0.3.80</EBNVersion><FirmwareVersion>1.33</FirmwareVersion><APIVersion>1.33</APIVersion><USBHostControllerVersion>3.0</USBHostControllerVersion><USBConnectionRoute>USB#ROOT_HUB30#4&769a227&0&0#{f18a0e88-c30c-11d0-8815-00a0c906bed8} + VID_2266&PID_0007(12)</USBConnectionRoute></ChronosDeviceInfo>	<?xml version="1.0"?>\n<Clock xmlns:dt="urn:schemas-microsoft-com:datatypes"><Description dt:dt="string">E-Prime Primary Realtime Clock</Description><StartTime><Timestamp dt:dt="int">0</Timestamp><DateUtc dt:dt="string">2019-12-04T18:42:01Z</DateUtc></StartTime><FrequencyChanges><FrequencyChange><Frequency dt:dt="r8">10000000</Frequency><Timestamp dt:dt="r8">26034703471183</Timestamp><Current dt:dt="r8">0</Current><DateUtc dt:dt="string">2019-12-04T18:42:01Z</DateUtc></FrequencyChange></FrequencyChanges></Clock>\n	Chronos	RSVP_Experiment_1_List_A_1-10-1	75.001	Chronos	1.0.0.283	Chronos	1	Chronos	Chronos	Chronos	Chronos	Chronos	Chronos	Chronos	Chronos	Chronos	1	1	Chronos	1	2069	347045	-1385639878	Full	3.0.3.80	3.0.3.80	12-04-2019	12/4/2019 6:42:02 PM	13:42:02	3.0.3.82	Chronos	33	1	93		0	1		0	0	1	Chronos	0	9	333656	1000		0	0	Chronos				TrialProc11	and my lawyer europe	1	1	Chronos	0	3	331736	0	1	1911	333647	NE	Trials	6-3	NE	30	1	30	my	visits	europe	?	?	?	?	?	?	?	?	doctor	?	?	?	?	?	?	?	?	?	?	visits	?	?	?	?	?	?	?	?	?	?	africa	?	every	year	and	my	lawyer	0	7	330456	93	0	0	331296	93	1	0	331389	94																	1	0	330549	94	0	1	330643	93	0	0	330736	93	1	0	330829	94	0	1	330923	93	0	0	331016	93	1	0	331109	94	0	1	331203	93
RSVP_Experiment_1_List_A_1	3	1	1	5	Chronos	5	2206	678520	1	1	Chronos	1	1925	680453	1	1	Chronos	1	1438	681899	<ChronosDeviceInfo><FriendlyName>MyChronos</FriendlyName><DeviceIndex>1</DeviceIndex><SerialNumber>CHR-04303-2970</SerialNumber><EBNVersion>3.0.3.60</EBNVersion><FirmwareVersion>1.33</FirmwareVersion><APIVersion>1.33</APIVersion><USBHostControllerVersion>3.0</USBHostControllerVersion><USBConnectionRoute>USB#ROOT_HUB30#4&769a227&0&0#{f18a0e88-c30c-11d0-8815-00a0c906bed8} + VID_2266&PID_0007(12)</USBConnectionRoute></ChronosDeviceInfo>	<?xml version="1.0"?>\n<Clock xmlns:dt="urn:schemas-microsoft-com:datatypes"><Description dt:dt="string">E-Prime Primary Realtime Clock</Description><StartTime><Timestamp dt:dt="int">0</Timestamp><DateUtc dt:dt="string">2019-11-01T12:58:30Z</DateUtc></StartTime><FrequencyChanges><FrequencyChange><Frequency dt:dt="r8">10000000</Frequency><Timestamp dt:dt="r8">2498410720578</Timestamp><Current dt:dt="r8">0</Current><DateUtc dt:dt="string">2019-11-01T12:58:30Z</DateUtc></FrequencyChange></FrequencyChanges></Clock>\n	Chronos	RSVP_Experiment_1_List_A_1-3-1	74.999	Chronos	1.0.0.262	Chronos	1	Chronos	Chronos	Chronos	Chronos	Chronos	Chronos	Chronos	Chronos	Chronos	1	1	Chronos	1	2992	684906	-1257600991	Full	3.0.3.60	3.0.3.60	11-01-2019		08:58:31	3.0.3.43	Chronos	1	1	93		0	0		0	0	1	Chronos	0	14	436951	1000		0	0	Chronos	1	1	1	TrialProc15	wind fell down	1	1	Chronos	1	3	435657	0	1	1280	436937	F	Practice	Practice1	F				a	blew	down	all	of	the	corn	?	?	?	?	storm	?	?	?	?	?	?	?	?	?	?	came	?	?	?	?	?	?	?	?	?	?	in	?	the	night	and	the	wind	0	7	434004	93	0	0	434844	93	1	0	434937	94	0	1	435031	93	0	0	435124	93	1	0	435217	94	0	1	435311	93	1	0	434097	94	0	1	434191	93	0	0	434284	93	1	0	434377	94	0	1	434471	93	0	0	434564	93	1	0	434657	94	0	1	434751	93
RSVP_Experiment_1_List_A_1	3	1	1	5	Chronos	5	2206	678520	1	1	Chronos	1	1925	680453	1	1	Chronos	1	1438	681899	<ChronosDeviceInfo><FriendlyName>MyChronos</FriendlyName><DeviceIndex>1</DeviceIndex><SerialNumber>CHR-04303-2970</SerialNumber><EBNVersion>3.0.3.60</EBNVersion><FirmwareVersion>1.33</FirmwareVersion><APIVersion>1.33</APIVersion><USBHostControllerVersion>3.0</USBHostControllerVersion><USBConnectionRoute>USB#ROOT_HUB30#4&769a227&0&0#{f18a0e88-c30c-11d0-8815-00a0c906bed8} + VID_2266&PID_0007(12)</USBConnectionRoute></ChronosDeviceInfo>	<?xml version="1.0"?>\n<Clock xmlns:dt="urn:schemas-microsoft-com:datatypes"><Description dt:dt="string">E-Prime Primary Realtime Clock</Description><StartTime><Timestamp dt:dt="int">0</Timestamp><DateUtc dt:dt="string">2019-11-01T12:58:30Z</DateUtc></StartTime><FrequencyChanges><FrequencyChange><Frequency dt:dt="r8">10000000</Frequency><Timestamp dt:dt="r8">2498410720578</Timestamp><Current dt:dt="r8">0</Current><DateUtc dt:dt="string">2019-11-01T12:58:30Z</DateUtc></FrequencyChange></FrequencyChanges></Clock>\n	Chronos	RSVP_Experiment_1_List_A_1-3-1	74.999	Chronos	1.0.0.262	Chronos	1	Chronos	Chronos	Chronos	Chronos	Chronos	Chronos	Chronos	Chronos	Chronos	1	1	Chronos	1	2992	684906	-1257600991	Full	3.0.3.60	3.0.3.60	11-01-2019		08:58:31	3.0.3.43	Chronos	2	5	93		1	0		0	0	5	Chronos	0	16	446551	1000		0	0	Chronos	2	1	2	TrialProc09	and journals lay	0	5	Chronos	0	4	444671	0	1	1864	446535	F	Practice	Practice2	F				magazines	?	?	?	?	?	?	?	?	?	?	books	?	?	?	?	?	?	?	?	?	?	and	?	?	?	?	?	?	?	?	?	?	journals	?	lay	all	over	the	desk	1	6	443577	94																									0	1	443671	93	0	0	443764	93	1	0	443857	94	0	1	443951	93	0	0	444044	93	1	0	444137	94	0	1	444231	93	0	0	444324	93
RSVP_Experiment_1_List_A_1	3	1	1	5	Chronos	5	2206	678520	1	1	Chronos	1	1925	680453	1	1	Chronos	1	1438	681899	<ChronosDeviceInfo><FriendlyName>MyChronos</FriendlyName><DeviceIndex>1</DeviceIndex><SerialNumber>CHR-04303-2970</SerialNumber><EBNVersion>3.0.3.60</EBNVersion><FirmwareVersion>1.33</FirmwareVersion><APIVersion>1.33</APIVersion><USBHostControllerVersion>3.0</USBHostControllerVersion><USBConnectionRoute>USB#ROOT_HUB30#4&769a227&0&0#{f18a0e88-c30c-11d0-8815-00a0c906bed8} + VID_2266&PID_0007(12)</USBConnectionRoute></ChronosDeviceInfo>	<?xml version="1.0"?>\n<Clock xmlns:dt="urn:schemas-microsoft-com:datatypes"><Description dt:dt="string">E-Prime Primary Realtime Clock</Description><StartTime><Timestamp dt:dt="int">0</Timestamp><DateUtc dt:dt="string">2019-11-01T12:58:30Z</DateUtc></StartTime><FrequencyChanges><FrequencyChange><Frequency dt:dt="r8">10000000</Frequency><Timestamp dt:dt="r8">2498410720578</Timestamp><Current dt:dt="r8">0</Current><DateUtc dt:dt="string">2019-11-01T12:58:30Z</DateUtc></FrequencyChange></FrequencyChanges></Clock>\n	Chronos	RSVP_Experiment_1_List_A_1-3-1	74.999	Chronos	1.0.0.262	Chronos	1	Chronos	Chronos	Chronos	Chronos	Chronos	Chronos	Chronos	Chronos	Chronos	1	1	Chronos	1	2992	684906	-1257600991	Full	3.0.3.60	3.0.3.60	11-01-2019		08:58:31	3.0.3.43	Chronos	3	1	93		0	0		0	0	1	Chronos	0	10	453031	1000		0	0	Chronos	3	1	3	TrialProc12	made of metal	0	1	Chronos	1	3	451937	0	5	1084	453021	F	Practice	Practice3	F				the	metal	and	cotton	?	?	?	?	?	?	?	chair	?	?	?	?	?	?	?	?	?	?	in	?	?	?	?	?	?	?	?	?	?	the	?	office	was	made	of	wood	1	7	450564	93	0	0	451404	94	0	1	451498	93	0	0	451591	93													1	0	450657	94	0	1	450751	93	0	0	450844	93	1	0	450937	94	0	1	451031	93	0	0	451124	94	0	1	451218	93	0	0	451311	93
RSVP_Experiment_1_List_A_1	3	1	1	5	Chronos	5	2206	678520	1	1	Chronos	1	1925	680453	1	1	Chronos	1	1438	681899	<ChronosDeviceInfo><FriendlyName>MyChronos</FriendlyName><DeviceIndex>1</DeviceIndex><SerialNumber>CHR-04303-2970</SerialNumber><EBNVersion>3.0.3.60</EBNVersion><FirmwareVersion>1.33</FirmwareVersion><APIVersion>1.33</APIVersion><USBHostControllerVersion>3.0</USBHostControllerVersion><USBConnectionRoute>USB#ROOT_HUB30#4&769a227&0&0#{f18a0e88-c30c-11d0-8815-00a0c906bed8} + VID_2266&PID_0007(12)</USBConnectionRoute></ChronosDeviceInfo>	<?xml version="1.0"?>\n<Clock xmlns:dt="urn:schemas-microsoft-com:datatypes"><Description dt:dt="string">E-Prime Primary Realtime Clock</Description><StartTime><Timestamp dt:dt="int">0</Timestamp><DateUtc dt:dt="string">2019-11-01T12:58:30Z</DateUtc></StartTime><FrequencyChanges><FrequencyChange><Frequency dt:dt="r8">10000000</Frequency><Timestamp dt:dt="r8">2498410720578</Timestamp><Current dt:dt="r8">0</Current><DateUtc dt:dt="string">2019-11-01T12:58:30Z</DateUtc></FrequencyChange></FrequencyChanges></Clock>\n	Chronos	RSVP_Experiment_1_List_A_1-3-1	74.999	Chronos	1.0.0.262	Chronos	1	Chronos	Chronos	Chronos	Chronos	Chronos	Chronos	Chronos	Chronos	Chronos	1	1	Chronos	1	2992	684906	-1257600991	Full	3.0.3.60	3.0.3.60	11-01-2019		08:58:31	3.0.3.43	Chronos	4	1	93		1	0		0	0	1	Chronos	0	13	467071	1000		0	0	Chronos	1	2	4	TrialProc15	wind fell down	1	1	Chronos	0	4	465578	0	1	1480	467058	F	Practice	Practice1	F				a	blew	down	all	of	the	corn	?	?	?	?	storm	?	?	?	?	?	?	?	?	?	?	came	?	?	?	?	?	?	?	?	?	?	in	?	the	night	and	the	wind	1	6	463924	94	1	0	464764	94	0	1	464858	93	0	0	464951	93	1	0	465044	94	0	1	465138	93	0	0	465231	93	0	1	464018	93	0	0	464111	93	1	0	464204	94	0	1	464298	93	0	0	464391	93	1	0	464484	94	0	1	464578	93	0	0	464671	93
RSVP_Experiment_1_List_A_1	3	1	1	5	Chronos	5	2206	678520	1	1	Chronos	1	1925	680453	1	1	Chronos	1	1438	681899	<ChronosDeviceInfo><FriendlyName>MyChronos</FriendlyName><DeviceIndex>1</DeviceIndex><SerialNumber>CHR-04303-2970</SerialNumber><EBNVersion>3.0.3.60</EBNVersion><FirmwareVersion>1.33</FirmwareVersion><APIVersion>1.33</APIVersion><USBHostControllerVersion>3.0</USBHostControllerVersion><USBConnectionRoute>USB#ROOT_HUB30#4&769a227&0&0#{f18a0e88-c30c-11d0-8815-00a0c906bed8} + VID_2266&PID_0007(12)</USBConnectionRoute></ChronosDeviceInfo>	<?xml version="1.0"?>\n<Clock xmlns:dt="urn:schemas-microsoft-com:datatypes"><Description dt:dt="string">E-Prime Primary Realtime Clock</Description><StartTime><Timestamp dt:dt="int">0</Timestamp><DateUtc dt:dt="string">2019-11-01T12:58:30Z</DateUtc></StartTime><FrequencyChanges><FrequencyChange><Frequency dt:dt="r8">10000000</Frequency><Timestamp dt:dt="r8">2498410720578</Timestamp><Current dt:dt="r8">0</Current><DateUtc dt:dt="string">2019-11-01T12:58:30Z</DateUtc></FrequencyChange></FrequencyChanges></Clock>\n	Chronos	RSVP_Experiment_1_List_A_1-3-1	74.999	Chronos	1.0.0.262	Chronos	1	Chronos	Chronos	Chronos	Chronos	Chronos	Chronos	Chronos	Chronos	Chronos	1	1	Chronos	1	2992	684906	-1257600991	Full	3.0.3.60	3.0.3.60	11-01-2019		08:58:31	3.0.3.43	Chronos	5	5	93		0	0		0	0	5	Chronos	1	6	472964	1001		0	0	Chronos	2	2	5	TrialProc09	and journals lay	0	5	Chronos	1	3	471484	0	1	1474	472958	F	Practice	Practice2	F				magazines	?	?	?	?	?	?	?	?	?	?	books	?	?	?	?	?	?	?	?	?	?	and	?	?	?	?	?	?	?	?	?	?	journals	?	lay	all	over	the	desk	0	7	470391	93																									1	0	470484	94	0	1	470578	93	0	0	470671	93	1	0	470764	94	0	1	470858	93	0	0	470951	93	1	0	471044	94	0	1	471138	93
RSVP_Experiment_1_List_A_1	3	1	1	5	Chronos	5	2206	678520	1	1	Chronos	1	1925	680453	1	1	Chronos	1	1438	681899	<ChronosDeviceInfo><FriendlyName>MyChronos</FriendlyName><DeviceIndex>1</DeviceIndex><SerialNumber>CHR-04303-2970</SerialNumber><EBNVersion>3.0.3.60</EBNVersion><FirmwareVersion>1.33</FirmwareVersion><APIVersion>1.33</APIVersion><USBHostControllerVersion>3.0</USBHostControllerVersion><USBConnectionRoute>USB#ROOT_HUB30#4&769a227&0&0#{f18a0e88-c30c-11d0-8815-00a0c906bed8} + VID_2266&PID_0007(12)</USBConnectionRoute></ChronosDeviceInfo>	<?xml version="1.0"?>\n<Clock xmlns:dt="urn:schemas-microsoft-com:datatypes"><Description dt:dt="string">E-Prime Primary Realtime Clock</Description><StartTime><Timestamp dt:dt="int">0</Timestamp><DateUtc dt:dt="string">2019-11-01T12:58:30Z</DateUtc></StartTime><FrequencyChanges><FrequencyChange><Frequency dt:dt="r8">10000000</Frequency><Timestamp dt:dt="r8">2498410720578</Timestamp><Current dt:dt="r8">0</Current><DateUtc dt:dt="string">2019-11-01T12:58:30Z</DateUtc></FrequencyChange></FrequencyChanges></Clock>\n	Chronos	RSVP_Experiment_1_List_A_1-3-1	74.999	Chronos	1.0.0.262	Chronos	1	Chronos	Chronos	Chronos	Chronos	Chronos	Chronos	Chronos	Chronos	Chronos	1	1	Chronos	1	2992	684906	-1257600991	Full	3.0.3.60	3.0.3.60	11-01-2019		08:58:31	3.0.3.43	Chronos	6	1	93		0	1		0	0	1	Chronos	0	13	479978	1000		0	0	Chronos	3	2	6	TrialProc12	made of metal	1	1	Chronos	0	3	477258	0	1	2707	479965	F	Practice	Practice3	F				the	metal	and	cotton	?	?	?	?	?	?	?	chair	?	?	?	?	?	?	?	?	?	?	in	?	?	?	?	?	?	?	?	?	?	the	?	office	was	made	of	wood	0	7	475885	93	0	1	476725	93	0	0	476818	93	1	0	476911	94													0	0	475978	93	1	0	476071	94	0	1	476165	93	0	0	476258	93	1	0	476351	94	0	1	476445	93	0	0	476538	93	1	0	476631	94
RSVP_Experiment_1_List_A_1	3	1	1	5	Chronos	5	2206	678520	1	1	Chronos	1	1925	680453	1	1	Chronos	1	1438	681899	<ChronosDeviceInfo><FriendlyName>MyChronos</FriendlyName><DeviceIndex>1</DeviceIndex><SerialNumber>CHR-04303-2970</SerialNumber><EBNVersion>3.0.3.60</EBNVersion><FirmwareVersion>1.33</FirmwareVersion><APIVersion>1.33</APIVersion><USBHostControllerVersion>3.0</USBHostControllerVersion><USBConnectionRoute>USB#ROOT_HUB30#4&769a227&0&0#{f18a0e88-c30c-11d0-8815-00a0c906bed8} + VID_2266&PID_0007(12)</USBConnectionRoute></ChronosDeviceInfo>	<?xml version="1.0"?>\n<Clock xmlns:dt="urn:schemas-microsoft-com:datatypes"><Description dt:dt="string">E-Prime Primary Realtime Clock</Description><StartTime><Timestamp dt:dt="int">0</Timestamp><DateUtc dt:dt="string">2019-11-01T12:58:30Z</DateUtc></StartTime><FrequencyChanges><FrequencyChange><Frequency dt:dt="r8">10000000</Frequency><Timestamp dt:dt="r8">2498410720578</Timestamp><Current dt:dt="r8">0</Current><DateUtc dt:dt="string">2019-11-01T12:58:30Z</DateUtc></FrequencyChange></FrequencyChanges></Clock>\n	Chronos	RSVP_Experiment_1_List_A_1-3-1	74.999	Chronos	1.0.0.262	Chronos	1	Chronos	Chronos	Chronos	Chronos	Chronos	Chronos	Chronos	Chronos	Chronos	1	1	Chronos	1	2992	684906	-1257600991	Full	3.0.3.60	3.0.3.60	11-01-2019		08:58:31	3.0.3.43	Chronos	7	1	93		0	1		0	0	1	Chronos	1	11	492911	1001		0	0	Chronos				TrialProc11	pan to make	0	1	Chronos	1	3	491578	0	5	1321	492899	F	Trials	Filler1	F	1	1	1	peter	the	potatoes	?	?	?	?	?	?	?	?	borrows	?	?	?	?	?	?	?	?	?	?	a	?	?	?	?	?	?	?	?	?	?	pot	?	pan	and	mixer	to	make	0	7	490298	93	0	0	491138	93	1	0	491231	94																	1	0	490391	94	0	1	490485	93	0	0	490578	93	1	0	490671	94	0	1	490765	93	0	0	490858	93	1	0	490951	94	0	1	491045	93
RSVP_Experiment_1_List_A_1	3	1	1	5	Chronos	5	2206	678520	1	1	Chronos	1	1925	680453	1	1	Chronos	1	1438	681899	<ChronosDeviceInfo><FriendlyName>MyChronos</FriendlyName><DeviceIndex>1</DeviceIndex><SerialNumber>CHR-04303-2970</SerialNumber><EBNVersion>3.0.3.60</EBNVersion><FirmwareVersion>1.33</FirmwareVersion><APIVersion>1.33</APIVersion><USBHostControllerVersion>3.0</USBHostControllerVersion><USBConnectionRoute>USB#ROOT_HUB30#4&769a227&0&0#{f18a0e88-c30c-11d0-8815-00a0c906bed8} + VID_2266&PID_0007(12)</USBConnectionRoute></ChronosDeviceInfo>	<?xml version="1.0"?>\n<Clock xmlns:dt="urn:schemas-microsoft-com:datatypes"><Description dt:dt="string">E-Prime Primary Realtime Clock</Description><StartTime><Timestamp dt:dt="int">0</Timestamp><DateUtc dt:dt="string">2019-11-01T12:58:30Z</DateUtc></StartTime><FrequencyChanges><FrequencyChange><Frequency dt:dt="r8">10000000</Frequency><Timestamp dt:dt="r8">2498410720578</Timestamp><Current dt:dt="r8">0</Current><DateUtc dt:dt="string">2019-11-01T12:58:30Z</DateUtc></FrequencyChange></FrequencyChanges></Clock>\n	Chronos	RSVP_Experiment_1_List_A_1-3-1	74.999	Chronos	1.0.0.262	Chronos	1	Chronos	Chronos	Chronos	Chronos	Chronos	Chronos	Chronos	Chronos	Chronos	1	1	Chronos	1	2992	684906	-1257600991	Full	3.0.3.60	3.0.3.60	11-01-2019		08:58:31	3.0.3.43	Chronos	8	5	93		1	0		0	0	5	Chronos	0	5	500285	1000		0	0	Chronos				TrialProc10	but his brother orange	0	5	Chronos	0	4	498432	0	1	1848	500280	G	Trials	Filler2	F	2	1	2	alex	green	?	?	?	?	?	?	?	?	?	likes	?	?	?	?	?	?	?	?	?	?	blue	?	?	?	?	?	?	?	?	?	?	but	?	his	brother	likes	orange	and	0	7	497245	93	0	0	498085	93																					1	0	497338	94	0	1	497432	93	0	0	497525	93	1	0	497618	94	0	1	497712	93	0	0	497805	93	1	0	497898	94	0	1	497992	93
RSVP_Experiment_1_List_A_1	3	1	1	5	Chronos	5	2206	678520	1	1	Chronos	1	1925	680453	1	1	Chronos	1	1438	681899	<ChronosDeviceInfo><FriendlyName>MyChronos</FriendlyName><DeviceIndex>1</DeviceIndex><SerialNumber>CHR-04303-2970</SerialNumber><EBNVersion>3.0.3.60</EBNVersion><FirmwareVersion>1.33</FirmwareVersion><APIVersion>1.33</APIVersion><USBHostControllerVersion>3.0</USBHostControllerVersion><USBConnectionRoute>USB#ROOT_HUB30#4&769a227&0&0#{f18a0e88-c30c-11d0-8815-00a0c906bed8} + VID_2266&PID_0007(12)</USBConnectionRoute></ChronosDeviceInfo>	<?xml version="1.0"?>\n<Clock xmlns:dt="urn:schemas-microsoft-com:datatypes"><Description dt:dt="string">E-Prime Primary Realtime Clock</Description><StartTime><Timestamp dt:dt="int">0</Timestamp><DateUtc dt:dt="string">2019-11-01T12:58:30Z</DateUtc></StartTime><FrequencyChanges><FrequencyChange><Frequency dt:dt="r8">10000000</Frequency><Timestamp dt:dt="r8">2498410720578</Timestamp><Current dt:dt="r8">0</Current><DateUtc dt:dt="string">2019-11-01T12:58:30Z</DateUtc></FrequencyChange></FrequencyChanges></Clock>\n	Chronos	RSVP_Experiment_1_List_A_1-3-1	74.999	Chronos	1.0.0.262	Chronos	1	Chronos	Chronos	Chronos	Chronos	Chronos	Chronos	Chronos	Chronos	Chronos	1	1	Chronos	1	2992	684906	-1257600991	Full	3.0.3.60	3.0.3.60	11-01-2019		08:58:31	3.0.3.43	Chronos	9	5	93		0	1		0	0	5	Chronos	1	8	506458	1000		0	0	Chronos				TrialProc12	play the horn	1	5	Chronos	0	3	504725	0	5	1724	506449	F	Trials	Filler3	F	3	1	3	my	and	bass	respectively	?	?	?	?	?	?	?	aunt	?	?	?	?	?	?	?	?	?	?	uncle	?	?	?	?	?	?	?	?	?	?	and	?	cousin	play	the	horn	piano	0	7	503352	93	0	1	504192	93	0	0	504285	93	1	0	504378	94													0	0	503445	93	1	0	503538	94	0	1	503632	93	0	0	503725	93	1	0	503818	94	0	1	503912	93	0	0	504005	93	1	0	504098	94
RSVP_Experiment_1_List_A_1	3	1	1	5	Chronos	5	2206	678520	1	1	Chronos	1	1925	680453	1	1	Chronos	1	1438	681899	<ChronosDeviceInfo><FriendlyName>MyChronos</FriendlyName><DeviceIndex>1</DeviceIndex><SerialNumber>CHR-04303-2970</SerialNumber><EBNVersion>3.0.3.60</EBNVersion><FirmwareVersion>1.33</FirmwareVersion><APIVersion>1.33</APIVersion><USBHostControllerVersion>3.0</USBHostControllerVersion><USBConnectionRoute>USB#ROOT_HUB30#4&769a227&0&0#{f18a0e88-c30c-11d0-8815-00a0c906bed8} + VID_2266&PID_0007(12)</USBConnectionRoute></ChronosDeviceInfo>	<?xml version="1.0"?>\n<Clock xmlns:dt="urn:schemas-microsoft-com:datatypes"><Description dt:dt="string">E-Prime Primary Realtime Clock</Description><StartTime><Timestamp dt:dt="int">0</Timestamp><DateUtc dt:dt="string">2019-11-01T12:58:30Z</DateUtc></StartTime><FrequencyChanges><FrequencyChange><Frequency dt:dt="r8">10000000</Frequency><Timestamp dt:dt="r8">2498410720578</Timestamp><Current dt:dt="r8">0</Current><DateUtc dt:dt="string">2019-11-01T12:58:30Z</DateUtc></FrequencyChange></FrequencyChanges></Clock>\n	Chronos	RSVP_Experiment_1_List_A_1-3-1	74.999	Chronos	1.0.0.262	Chronos	1	Chronos	Chronos	Chronos	Chronos	Chronos	Chronos	Chronos	Chronos	Chronos	1	1	Chronos	1	2992	684906	-1257600991	Full	3.0.3.60	3.0.3.60	11-01-2019		08:58:31	3.0.3.43	Chronos	10	1	93		0	0		0	0	1	Chronos	0	9	513192	1000		0	0	Chronos				TrialProc09	bill likes jazz	0	1	Chronos	1	3	511058	0	5	2124	513182	SG	Trials	4-5	SG	4	1	4	john	?	?	?	?	?	?	?	?	?	?	likes	?	?	?	?	?	?	?	?	?	?	rock	?	?	?	?	?	?	?	?	?	?	and	?	bill	took	and	mike	jazz	0	7	509965	93																									1	0	510058	94	0	1	510152	93	0	0	510245	93	1	0	510338	94	0	1	510432	93	0	0	510525	93	1	0	510618	94	0	1	510712	93
RSVP_Experiment_1_List_A_1	3	1	1	5	Chronos	5	2206	678520	1	1	Chronos	1	1925	680453	1	1	Chronos	1	1438	681899	<ChronosDeviceInfo><FriendlyName>MyChronos</FriendlyName><DeviceIndex>1</DeviceIndex><SerialNumber>CHR-04303-2970</SerialNumber><EBNVersion>3.0.3.60</EBNVersion><FirmwareVersion>1.33</FirmwareVersion><APIVersion>1.33</APIVersion><USBHostControllerVersion>3.0</USBHostControllerVersion><USBConnectionRoute>USB#ROOT_HUB30#4&769a227&0&0#{f18a0e88-c30c-11d0-8815-00a0c906bed8} + VID_2266&PID_0007(12)</USBConnectionRoute></ChronosDeviceInfo>	<?xml version="1.0"?>\n<Clock xmlns:dt="urn:schemas-microsoft-com:datatypes"><Description dt:dt="string">E-Prime Primary Realtime Clock</Description><StartTime><Timestamp dt:dt="int">0</Timestamp><DateUtc dt:dt="string">2019-11-01T12:58:30Z</DateUtc></StartTime><FrequencyChanges><FrequencyChange><Frequency dt:dt="r8">10000000</Frequency><Timestamp dt:dt="r8">2498410720578</Timestamp><Current dt:dt="r8">0</Current><DateUtc dt:dt="string">2019-11-01T12:58:30Z</DateUtc></FrequencyChange></FrequencyChanges></Clock>\n	Chronos	RSVP_Experiment_1_List_A_1-3-1	74.999	Chronos	1.0.0.262	Chronos	1	Chronos	Chronos	Chronos	Chronos	Chronos	Chronos	Chronos	Chronos	Chronos	1	1	Chronos	1	2992	684906	-1257600991	Full	3.0.3.60	3.0.3.60	11-01-2019		08:58:31	3.0.3.43	Chronos	11	1	93		0	1		0	0	1	Chronos	1	12	520005	1000		0	0	Chronos				TrialProc07	and russia tennis	0	1	Chronos	0	3	518352	0	5	1640	519992	NE	Trials	6-4	NE	5	1	5	canada	?	?	?	?	?	?	?	?	?	?	enjoys	?	?	?	?	?	?	?	?	?	?	soccer	?	?	?	?	?	?	?	?	?	?	and	?	russia	enjoys	tennis	?	?	1	6	517445	94																									0	1	517539	93	0	0	517632	93	1	0	517725	94	0	1	517819	93	0	0	517912	93	1	0	518005	94								
RSVP_Experiment_1_List_A_1	3	1	1	5	Chronos	5	2206	678520	1	1	Chronos	1	1925	680453	1	1	Chronos	1	1438	681899	<ChronosDeviceInfo><FriendlyName>MyChronos</FriendlyName><DeviceIndex>1</DeviceIndex><SerialNumber>CHR-04303-2970</SerialNumber><EBNVersion>3.0.3.60</EBNVersion><FirmwareVersion>1.33</FirmwareVersion><APIVersion>1.33</APIVersion><USBHostControllerVersion>3.0</USBHostControllerVersion><USBConnectionRoute>USB#ROOT_HUB30#4&769a227&0&0#{f18a0e88-c30c-11d0-8815-00a0c906bed8} + VID_2266&PID_0007(12)</USBConnectionRoute></ChronosDeviceInfo>	<?xml version="1.0"?>\n<Clock xmlns:dt="urn:schemas-microsoft-com:datatypes"><Description dt:dt="string">E-Prime Primary Realtime Clock</Description><StartTime><Timestamp dt:dt="int">0</Timestamp><DateUtc dt:dt="string">2019-11-01T12:58:30Z</DateUtc></StartTime><FrequencyChanges><FrequencyChange><Frequency dt:dt="r8">10000000</Frequency><Timestamp dt:dt="r8">2498410720578</Timestamp><Current dt:dt="r8">0</Current><DateUtc dt:dt="string">2019-11-01T12:58:30Z</DateUtc></FrequencyChange></FrequencyChanges></Clock>\n	Chronos	RSVP_Experiment_1_List_A_1-3-1	74.999	Chronos	1.0.0.262	Chronos	1	Chronos	Chronos	Chronos	Chronos	Chronos	Chronos	Chronos	Chronos	Chronos	1	1	Chronos	1	2992	684906	-1257600991	Full	3.0.3.60	3.0.3.60	11-01-2019		08:58:31	3.0.3.43	Chronos	12	5	93		0	1		0	0	5	Chronos	0	14	526459	1000		0	0	Chronos				TrialProc09	cancer in the mouth	1	5	Chronos	0	3	524992	0	5	1453	526445	F	Trials	Filler4	F	6	1	6	alcohol	?	?	?	?	?	?	?	?	?	?	can	?	?	?	?	?	?	?	?	?	?	cause	?	?	?	?	?	?	?	?	?	?	cancer	?	injured	the	mouth	and	stomach	0	7	523899	93																									0	0	523992	93	1	0	524085	94	0	1	524179	93	0	0	524272	93	1	0	524365	94	0	1	524459	93	0	0	524552	93	1	0	524645	94
RSVP_Experiment_1_List_A_1	3	1	1	5	Chronos	5	2206	678520	1	1	Chronos	1	1925	680453	1	1	Chronos	1	1438	681899	<ChronosDeviceInfo><FriendlyName>MyChronos</FriendlyName><DeviceIndex>1</DeviceIndex><SerialNumber>CHR-04303-2970</SerialNumber><EBNVersion>3.0.3.60</EBNVersion><FirmwareVersion>1.33</FirmwareVersion><APIVersion>1.33</APIVersion><USBHostControllerVersion>3.0</USBHostControllerVersion><USBConnectionRoute>USB#ROOT_HUB30#4&769a227&0&0#{f18a0e88-c30c-11d0-8815-00a0c906bed8} + VID_2266&PID_0007(12)</USBConnectionRoute></ChronosDeviceInfo>	<?xml version="1.0"?>\n<Clock xmlns:dt="urn:schemas-microsoft-com:datatypes"><Description dt:dt="string">E-Prime Primary Realtime Clock</Description><StartTime><Timestamp dt:dt="int">0</Timestamp><DateUtc dt:dt="string">2019-11-01T12:58:30Z</DateUtc></StartTime><FrequencyChanges><FrequencyChange><Frequency dt:dt="r8">10000000</Frequency><Timestamp dt:dt="r8">2498410720578</Timestamp><Current dt:dt="r8">0</Current><DateUtc dt:dt="string">2019-11-01T12:58:30Z</DateUtc></FrequencyChange></FrequencyChanges></Clock>\n	Chronos	RSVP_Experiment_1_List_A_1-3-1	74.999	Chronos	1.0.0.262	Chronos	1	Chronos	Chronos	Chronos	Chronos	Chronos	Chronos	Chronos	Chronos	Chronos	1	1	Chronos	1	2992	684906	-1257600991	Full	3.0.3.60	3.0.3.60	11-01-2019		08:58:31	3.0.3.43	Chronos	13	1	93		1	0		0	0	1	Chronos	0	9	533859	1000		0	0	Chronos				TrialProc09	and david plays	0	1	Chronos	0	4	530699	0	5	3151	533850	S	Trials	Filler5	F	7	1	7	david	?	?	?	?	?	?	?	?	?	?	plays	?	?	?	?	?	?	?	?	?	?	country	?	?	?	?	?	?	?	?	?	?	and	?	metal	music	in	his	band	1	6	529605	94																									0	1	529699	93	0	0	529792	93	1	0	529885	94	0	1	529979	93	0	0	530072	93	1	0	530165	94	0	1	530259	93	0	0	530352	93
RSVP_Experiment_1_List_A_1	3	1	1	5	Chronos	5	2206	678520	1	1	Chronos	1	1925	680453	1	1	Chronos	1	1438	681899	<ChronosDeviceInfo><FriendlyName>MyChronos</FriendlyName><DeviceIndex>1</DeviceIndex><SerialNumber>CHR-04303-2970</SerialNumber><EBNVersion>3.0.3.60</EBNVersion><FirmwareVersion>1.33</FirmwareVersion><APIVersion>1.33</APIVersion><USBHostControllerVersion>3.0</USBHostControllerVersion><USBConnectionRoute>USB#ROOT_HUB30#4&769a227&0&0#{f18a0e88-c30c-11d0-8815-00a0c906bed8} + VID_2266&PID_0007(12)</USBConnectionRoute></ChronosDeviceInfo>	<?xml version="1.0"?>\n<Clock xmlns:dt="urn:schemas-microsoft-com:datatypes"><Description dt:dt="string">E-Prime Primary Realtime Clock</Description><StartTime><Timestamp dt:dt="int">0</Timestamp><DateUtc dt:dt="string">2019-11-01T12:58:30Z</DateUtc></StartTime><FrequencyChanges><FrequencyChange><Frequency dt:dt="r8">10000000</Frequency><Timestamp dt:dt="r8">2498410720578</Timestamp><Current dt:dt="r8">0</Current><DateUtc dt:dt="string">2019-11-01T12:58:30Z</DateUtc></FrequencyChange></FrequencyChanges></Clock>\n	Chronos	RSVP_Experiment_1_List_A_1-3-1	74.999	Chronos	1.0.0.262	Chronos	1	Chronos	Chronos	Chronos	Chronos	Chronos	Chronos	Chronos	Chronos	Chronos	1	1	Chronos	1	2992	684906	-1257600991	Full	3.0.3.60	3.0.3.60	11-01-2019		08:58:31	3.0.3.43	Chronos	14	1	93		1	0		0	0	1	Chronos	0	5	539006	1000		0	0	Chronos				TrialProc06	and brian sells	0	1	Chronos	0	4	537966	0	5	1035	539001	S	Trials	5-1	S	8	1	8	chris	?	?	?	?	?	?	?	?	?	?	sells	?	?	?	?	?	?	?	?	?	?	knives	?	?	?	?	?	?	?	?	?	?	and	?	brian	too	?	?	?	1	6	537152	94																									0	1	537246	93	0	0	537339	93	1	0	537432	94	0	1	537526	93	0	0	537619	93												
RSVP_Experiment_1_List_A_1	3	1	1	5	Chronos	5	2206	678520	1	1	Chronos	1	1925	680453	1	1	Chronos	1	1438	681899	<ChronosDeviceInfo><FriendlyName>MyChronos</FriendlyName><DeviceIndex>1</DeviceIndex><SerialNumber>CHR-04303-2970</SerialNumber><EBNVersion>3.0.3.60</EBNVersion><FirmwareVersion>1.33</FirmwareVersion><APIVersion>1.33</APIVersion><USBHostControllerVersion>3.0</USBHostControllerVersion><USBConnectionRoute>USB#ROOT_HUB30#4&769a227&0&0#{f18a0e88-c30c-11d0-8815-00a0c906bed8} + VID_2266&PID_0007(12)</USBConnectionRoute></ChronosDeviceInfo>	<?xml version="1.0"?>\n<Clock xmlns:dt="urn:schemas-microsoft-com:datatypes"><Description dt:dt="string">E-Prime Primary Realtime Clock</Description><StartTime><Timestamp dt:dt="int">0</Timestamp><DateUtc dt:dt="string">2019-11-01T12:58:30Z</DateUtc></StartTime><FrequencyChanges><FrequencyChange><Frequency dt:dt="r8">10000000</Frequency><Timestamp dt:dt="r8">2498410720578</Timestamp><Current dt:dt="r8">0</Current><DateUtc dt:dt="string">2019-11-01T12:58:30Z</DateUtc></FrequencyChange></FrequencyChanges></Clock>\n	Chronos	RSVP_Experiment_1_List_A_1-3-1	74.999	Chronos	1.0.0.262	Chronos	1	Chronos	Chronos	Chronos	Chronos	Chronos	Chronos	Chronos	Chronos	Chronos	1	1	Chronos	1	2992	684906	-1257600991	Full	3.0.3.60	3.0.3.60	11-01-2019		08:58:31	3.0.3.43	Chronos	15	5	93		0	1		0	0	5	Chronos	1	9	544912	1000		0	0	Chronos				TrialProc10	and my mother a donkey	1	5	Chronos	0	3	543459	0	5	1444	544903	G	Trials	6-2	G	9	1	9	my	donkey	?	?	?	?	?	?	?	?	?	cousin	?	?	?	?	?	?	?	?	?	?	bought	?	?	?	?	?	?	?	?	?	?	a	?	rabbit	and	my	mother	a	1	6	542272	94	1	0	543112	94																					0	1	542366	93	0	0	542459	93	1	0	542552	94	0	1	542646	93	0	0	542739	93	1	0	542832	94	0	1	542926	93	0	0	543019	93
RSVP_Experiment_1_List_A_1	3	1	1	5	Chronos	5	2206	678520	1	1	Chronos	1	1925	680453	1	1	Chronos	1	1438	681899	<ChronosDeviceInfo><FriendlyName>MyChronos</FriendlyName><DeviceIndex>1</DeviceIndex><SerialNumber>CHR-04303-2970</SerialNumber><EBNVersion>3.0.3.60</EBNVersion><FirmwareVersion>1.33</FirmwareVersion><APIVersion>1.33</APIVersion><USBHostControllerVersion>3.0</USBHostControllerVersion><USBConnectionRoute>USB#ROOT_HUB30#4&769a227&0&0#{f18a0e88-c30c-11d0-8815-00a0c906bed8} + VID_2266&PID_0007(12)</USBConnectionRoute></ChronosDeviceInfo>	<?xml version="1.0"?>\n<Clock xmlns:dt="urn:schemas-microsoft-com:datatypes"><Description dt:dt="string">E-Prime Primary Realtime Clock</Description><StartTime><Timestamp dt:dt="int">0</Timestamp><DateUtc dt:dt="string">2019-11-01T12:58:30Z</DateUtc></StartTime><FrequencyChanges><FrequencyChange><Frequency dt:dt="r8">10000000</Frequency><Timestamp dt:dt="r8">2498410720578</Timestamp><Current dt:dt="r8">0</Current><DateUtc dt:dt="string">2019-11-01T12:58:30Z</DateUtc></FrequencyChange></FrequencyChanges></Clock>\n	Chronos	RSVP_Experiment_1_List_A_1-3-1	74.999	Chronos	1.0.0.262	Chronos	1	Chronos	Chronos	Chronos	Chronos	Chronos	Chronos	Chronos	Chronos	Chronos	1	1	Chronos	1	2992	684906	-1257600991	Full	3.0.3.60	3.0.3.60	11-01-2019		08:58:31	3.0.3.43	Chronos	16	1	93		0	1		0	0	1	Chronos	0	15	550499	1000		0	0	Chronos				TrialProc13	study how bombs	0	1	Chronos	0	3	549499	0	5	985	550484	F	Trials	Filler7	F	10	1	10	bob	are	used	india	wars	?	?	?	?	?	?	and	?	?	?	?	?	?	?	?	?	?	george	?	?	?	?	?	?	?	?	?	?	study	?	how	guns	bombs	and	missiles	1	6	548032	94	1	0	548872	94	0	1	548966	93	0	0	549059	93	1	0	549152	94									0	1	548126	93	0	0	548219	93	1	0	548312	94	0	1	548406	93	0	0	548499	93	1	0	548592	94	0	1	548686	93	0	0	548779	93
RSVP_Experiment_1_List_A_1	3	1	1	5	Chronos	5	2206	678520	1	1	Chronos	1	1925	680453	1	1	Chronos	1	1438	681899	<ChronosDeviceInfo><FriendlyName>MyChronos</FriendlyName><DeviceIndex>1</DeviceIndex><SerialNumber>CHR-04303-2970</SerialNumber><EBNVersion>3.0.3.60</EBNVersion><FirmwareVersion>1.33</FirmwareVersion><APIVersion>1.33</APIVersion><USBHostControllerVersion>3.0</USBHostControllerVersion><USBConnectionRoute>USB#ROOT_HUB30#4&769a227&0&0#{f18a0e88-c30c-11d0-8815-00a0c906bed8} + VID_2266&PID_0007(12)</USBConnectionRoute></ChronosDeviceInfo>	<?xml version="1.0"?>\n<Clock xmlns:dt="urn:schemas-microsoft-com:datatypes"><Description dt:dt="string">E-Prime Primary Realtime Clock</Description><StartTime><Timestamp dt:dt="int">0</Timestamp><DateUtc dt:dt="string">2019-11-01T12:58:30Z</DateUtc></StartTime><FrequencyChanges><FrequencyChange><Frequency dt:dt="r8">10000000</Frequency><Timestamp dt:dt="r8">2498410720578</Timestamp><Current dt:dt="r8">0</Current><DateUtc dt:dt="string">2019-11-01T12:58:30Z</DateUtc></FrequencyChange></FrequencyChanges></Clock>\n	Chronos	RSVP_Experiment_1_List_A_1-3-1	74.999	Chronos	1.0.0.262	Chronos	1	Chronos	Chronos	Chronos	Chronos	Chronos	Chronos	Chronos	Chronos	Chronos	1	1	Chronos	1	2992	684906	-1257600991	Full	3.0.3.60	3.0.3.60	11-01-2019		08:58:31	3.0.3.43	Chronos	17	5	93		1	0		0	0	5	Chronos	0	17	555926	1000		0	0	Chronos				TrialProc12	popular in china	1	5	Chronos	0	4	554886	0	5	1023	555909	SG	Trials	Filler6	F	11	1	11	baseball	but	not	india	?	?	?	?	?	?	?	and	?	?	?	?	?	?	?	?	?	?	golf	?	?	?	?	?	?	?	?	?	?	are	?	popular	in	china	and	japan	1	6	553512	94	1	0	554352	94	0	1	554446	93	0	0	554539	93													0	1	553606	93	0	0	553699	93	1	0	553792	94	0	1	553886	93	0	0	553979	93	1	0	554072	94	0	1	554166	93	0	0	554259	93
RSVP_Experiment_1_List_A_1	3	1	1	5	Chronos	5	2206	678520	1	1	Chronos	1	1925	680453	1	1	Chronos	1	1438	681899	<ChronosDeviceInfo><FriendlyName>MyChronos</FriendlyName><DeviceIndex>1</DeviceIndex><SerialNumber>CHR-04303-2970</SerialNumber><EBNVersion>3.0.3.60</EBNVersion><FirmwareVersion>1.33</FirmwareVersion><APIVersion>1.33</APIVersion><USBHostControllerVersion>3.0</USBHostControllerVersion><USBConnectionRoute>USB#ROOT_HUB30#4&769a227&0&0#{f18a0e88-c30c-11d0-8815-00a0c906bed8} + VID_2266&PID_0007(12)</USBConnectionRoute></ChronosDeviceInfo>	<?xml version="1.0"?>\n<Clock xmlns:dt="urn:schemas-microsoft-com:datatypes"><Description dt:dt="string">E-Prime Primary Realtime Clock</Description><StartTime><Timestamp dt:dt="int">0</Timestamp><DateUtc dt:dt="string">2019-11-01T12:58:30Z</DateUtc></StartTime><FrequencyChanges><FrequencyChange><Frequency dt:dt="r8">10000000</Frequency><Timestamp dt:dt="r8">2498410720578</Timestamp><Current dt:dt="r8">0</Current><DateUtc dt:dt="string">2019-11-01T12:58:30Z</DateUtc></FrequencyChange></FrequencyChanges></Clock>\n	Chronos	RSVP_Experiment_1_List_A_1-3-1	74.999	Chronos	1.0.0.262	Chronos	1	Chronos	Chronos	Chronos	Chronos	Chronos	Chronos	Chronos	Chronos	Chronos	1	1	Chronos	1	2992	684906	-1257600991	Full	3.0.3.60	3.0.3.60	11-01-2019		08:58:31	3.0.3.43	Chronos	18	1	93		0	1		0	0	1	Chronos	0	16	561446	1000		0	0	Chronos				TrialProc09	peru buys silk	0	1	Chronos	0	3	560006	0	5	1423	561429	GS	Trials	4-2	GS	12	1	12	iraq	?	?	?	?	?	?	?	?	?	?	buys	?	?	?	?	?	?	?	?	?	?	silk	?	?	?	?	?	?	?	?	?	?	and	?	iran	wool	and	peru	too	0	7	558913	93																									0	0	559006	93	1	0	559099	94	0	1	559193	93	0	0	559286	93	1	0	559379	94	0	1	559473	93	0	0	559566	93	1	0	559659	94
RSVP_Experiment_1_List_A_1	3	1	1	5	Chronos	5	2206	678520	1	1	Chronos	1	1925	680453	1	1	Chronos	1	1438	681899	<ChronosDeviceInfo><FriendlyName>MyChronos</FriendlyName><DeviceIndex>1</DeviceIndex><SerialNumber>CHR-04303-2970</SerialNumber><EBNVersion>3.0.3.60</EBNVersion><FirmwareVersion>1.33</FirmwareVersion><APIVersion>1.33</APIVersion><USBHostControllerVersion>3.0</USBHostControllerVersion><USBConnectionRoute>USB#ROOT_HUB30#4&769a227&0&0#{f18a0e88-c30c-11d0-8815-00a0c906bed8} + VID_2266&PID_0007(12)</USBConnectionRoute></ChronosDeviceInfo>	<?xml version="1.0"?>\n<Clock xmlns:dt="urn:schemas-microsoft-com:datatypes"><Description dt:dt="string">E-Prime Primary Realtime Clock</Description><StartTime><Timestamp dt:dt="int">0</Timestamp><DateUtc dt:dt="string">2019-11-01T12:58:30Z</DateUtc></StartTime><FrequencyChanges><FrequencyChange><Frequency dt:dt="r8">10000000</Frequency><Timestamp dt:dt="r8">2498410720578</Timestamp><Current dt:dt="r8">0</Current><DateUtc dt:dt="string">2019-11-01T12:58:30Z</DateUtc></FrequencyChange></FrequencyChanges></Clock>\n	Chronos	RSVP_Experiment_1_List_A_1-3-1	74.999	Chronos	1.0.0.262	Chronos	1	Chronos	Chronos	Chronos	Chronos	Chronos	Chronos	Chronos	Chronos	Chronos	1	1	Chronos	1	2992	684906	-1257600991	Full	3.0.3.60	3.0.3.60	11-01-2019		08:58:31	3.0.3.43	Chronos	19	5	93		0	1		0	0	5	Chronos	0	11	566886	1000		0	0	Chronos				TrialProc11	keeps several horses	1	5	Chronos	0	3	565606	0	5	1269	566875	F	Trials	Filler8	F	13	1	13	my	the	country	?	?	?	?	?	?	?	?	uncle	?	?	?	?	?	?	?	?	?	?	keeps	?	?	?	?	?	?	?	?	?	?	several	?	horses	at	his	farm	in	0	7	564326	93	0	0	565166	93	1	0	565259	94																	1	0	564419	94	0	1	564513	93	0	0	564606	93	1	0	564699	94	0	1	564793	93	0	0	564886	93	1	0	564979	94	0	1	565073	93
RSVP_Experiment_1_List_A_1	3	1	1	5	Chronos	5	2206	678520	1	1	Chronos	1	1925	680453	1	1	Chronos	1	1438	681899	<ChronosDeviceInfo><FriendlyName>MyChronos</FriendlyName><DeviceIndex>1</DeviceIndex><SerialNumber>CHR-04303-2970</SerialNumber><EBNVersion>3.0.3.60</EBNVersion><FirmwareVersion>1.33</FirmwareVersion><APIVersion>1.33</APIVersion><USBHostControllerVersion>3.0</USBHostControllerVersion><USBConnectionRoute>USB#ROOT_HUB30#4&769a227&0&0#{f18a0e88-c30c-11d0-8815-00a0c906bed8} + VID_2266&PID_0007(12)</USBConnectionRoute></ChronosDeviceInfo>	<?xml version="1.0"?>\n<Clock xmlns:dt="urn:schemas-microsoft-com:datatypes"><Description dt:dt="string">E-Prime Primary Realtime Clock</Description><StartTime><Timestamp dt:dt="int">0</Timestamp><DateUtc dt:dt="string">2019-11-01T12:58:30Z</DateUtc></StartTime><FrequencyChanges><FrequencyChange><Frequency dt:dt="r8">10000000</Frequency><Timestamp dt:dt="r8">2498410720578</Timestamp><Current dt:dt="r8">0</Current><DateUtc dt:dt="string">2019-11-01T12:58:30Z</DateUtc></FrequencyChange></FrequencyChanges></Clock>\n	Chronos	RSVP_Experiment_1_List_A_1-3-1	74.999	Chronos	1.0.0.262	Chronos	1	Chronos	Chronos	Chronos	Chronos	Chronos	Chronos	Chronos	Chronos	Chronos	1	1	Chronos	1	2992	684906	-1257600991	Full	3.0.3.60	3.0.3.60	11-01-2019		08:58:31	3.0.3.43	Chronos	20	5	93		1	0		0	0	5	Chronos	0	14	573073	1000		0	0	Chronos				TrialProc08	and annie a tulip	0	5	Chronos	0	4	571393	0	1	1665	573058	G	Trials	5-2	G	14	1	14	katie	?	?	?	?	?	?	?	?	?	?	threw	?	?	?	?	?	?	?	?	?	?	a	?	?	?	?	?	?	?	?	?	?	daisy	?	and	annie	a	tulip	?	0	7	570393	93																									0	0	570486	93	1	0	570579	94	0	1	570673	93	0	0	570766	93	1	0	570859	94	0	1	570953	93	0	0	571046	93				
RSVP_Experiment_1_List_A_1	3	1	1	5	Chronos	5	2206	678520	1	1	Chronos	1	1925	680453	1	1	Chronos	1	1438	681899	<ChronosDeviceInfo><FriendlyName>MyChronos</FriendlyName><DeviceIndex>1</DeviceIndex><SerialNumber>CHR-04303-2970</SerialNumber><EBNVersion>3.0.3.60</EBNVersion><FirmwareVersion>1.33</FirmwareVersion><APIVersion>1.33</APIVersion><USBHostControllerVersion>3.0</USBHostControllerVersion><USBConnectionRoute>USB#ROOT_HUB30#4&769a227&0&0#{f18a0e88-c30c-11d0-8815-00a0c906bed8} + VID_2266&PID_0007(12)</USBConnectionRoute></ChronosDeviceInfo>	<?xml version="1.0"?>\n<Clock xmlns:dt="urn:schemas-microsoft-com:datatypes"><Description dt:dt="string">E-Prime Primary Realtime Clock</Description><StartTime><Timestamp dt:dt="int">0</Timestamp><DateUtc dt:dt="string">2019-11-01T12:58:30Z</DateUtc></StartTime><FrequencyChanges><FrequencyChange><Frequency dt:dt="r8">10000000</Frequency><Timestamp dt:dt="r8">2498410720578</Timestamp><Current dt:dt="r8">0</Current><DateUtc dt:dt="string">2019-11-01T12:58:30Z</DateUtc></FrequencyChange></FrequencyChanges></Clock>\n	Chronos	RSVP_Experiment_1_List_A_1-3-1	74.999	Chronos	1.0.0.262	Chronos	1	Chronos	Chronos	Chronos	Chronos	Chronos	Chronos	Chronos	Chronos	Chronos	1	1	Chronos	1	2992	684906	-1257600991	Full	3.0.3.60	3.0.3.60	11-01-2019		08:58:31	3.0.3.43	Chronos	21	1	93		1	0		0	0	1	Chronos	1	4	579086	1000		0	0	Chronos				TrialProc09	and wore the crow	1	1	Chronos	0	4	577313	0	1	1768	579081	S	Trials	4-3	S	15	1	15	the	?	?	?	?	?	?	?	?	?	?	hawk	?	?	?	?	?	?	?	?	?	?	wore	?	?	?	?	?	?	?	?	?	?	a	?	shoe	and	the	crow	too	1	6	576219	94																									0	1	576313	93	0	0	576406	93	1	0	576499	94	0	1	576593	93	0	0	576686	93	1	0	576779	94	0	1	576873	93	0	0	576966	93
RSVP_Experiment_1_List_A_1	3	1	1	5	Chronos	5	2206	678520	1	1	Chronos	1	1925	680453	1	1	Chronos	1	1438	681899	<ChronosDeviceInfo><FriendlyName>MyChronos</FriendlyName><DeviceIndex>1</DeviceIndex><SerialNumber>CHR-04303-2970</SerialNumber><EBNVersion>3.0.3.60</EBNVersion><FirmwareVersion>1.33</FirmwareVersion><APIVersion>1.33</APIVersion><USBHostControllerVersion>3.0</USBHostControllerVersion><USBConnectionRoute>USB#ROOT_HUB30#4&769a227&0&0#{f18a0e88-c30c-11d0-8815-00a0c906bed8} + VID_2266&PID_0007(12)</USBConnectionRoute></ChronosDeviceInfo>	<?xml version="1.0"?>\n<Clock xmlns:dt="urn:schemas-microsoft-com:datatypes"><Description dt:dt="string">E-Prime Primary Realtime Clock</Description><StartTime><Timestamp dt:dt="int">0</Timestamp><DateUtc dt:dt="string">2019-11-01T12:58:30Z</DateUtc></StartTime><FrequencyChanges><FrequencyChange><Frequency dt:dt="r8">10000000</Frequency><Timestamp dt:dt="r8">2498410720578</Timestamp><Current dt:dt="r8">0</Current><DateUtc dt:dt="string">2019-11-01T12:58:30Z</DateUtc></FrequencyChange></FrequencyChanges></Clock>\n	Chronos	RSVP_Experiment_1_List_A_1-3-1	74.999	Chronos	1.0.0.262	Chronos	1	Chronos	Chronos	Chronos	Chronos	Chronos	Chronos	Chronos	Chronos	Chronos	1	1	Chronos	1	2992	684906	-1257600991	Full	3.0.3.60	3.0.3.60	11-01-2019		08:58:31	3.0.3.43	Chronos	22	5	93		0	1		0	0	5	Chronos	1	16	585046	1000		0	0	Chronos				TrialProc09	and linda drove	0	5	Chronos	0	3	583473	0	1	1557	585030	NE	Trials	5-3	NE	16	1	16	susan	?	?	?	?	?	?	?	?	?	?	drove	?	?	?	?	?	?	?	?	?	?	a	?	?	?	?	?	?	?	?	?	?	honda	?	and	linda	drove	a	chevy	0	7	582380	93																									0	0	582473	93	1	0	582566	94	0	1	582660	93	0	0	582753	93	1	0	582846	94	0	1	582940	93	0	0	583033	93	1	0	583126	94
